"Subject","n_trials","n_explores","n_corrects","n_selects","n_outoftimes","tm_accuracy","tm_select_made","tm_nodesturns_count","tm_nodes_count","tm_turns_count","tm_average_RT","tm_trial_duration","tm_path_dist_trav","tm_euc_dist_trav","tm_path_efficiencies","ts_accuracy","ts_select_made","ts_nodesturns_count","ts_nodes_count","ts_turns_count","ts_average_RT","ts_trial_duration","ts_path_dist_trav","ts_euc_dist_trav","ts_path_efficiencies","em_accuracy","em_select_made","em_turns_count","em_average_RT","em_trial_duration","em_path_dist_trav","em_euc_dist_trav","em_path_efficiencies","es_accuracy","es_select_made","es_turns_count","es_average_RT","es_trial_duration","es_path_dist_trav","es_euc_dist_trav","es_path_efficiencies","enodes_A","enodes_B","enodes_C","enodes_D","enodes_E","enodes_F","enodes_G","enodes_H","enodes_I","enodes_J","enodes_K","enodes_L","enodes_M","enodes_N","enodes_O","enodes_P","enodes_Q","enodes_R","enodes_S","enodes_T","enodes_U","enodes_V","enodes_W","enodes_X","enodes_Y","enodes_Z","lm_bwstair","lm_person","lm_philsbar","lm_starrynight","obj_chair","obj_chicken","obj_clock","obj_guitar","obj_lamp","obj_snowman","obj_spaceship","obj_trophy","obj_umbrella"
"301","24","2","4","19","7","0.166666666666667","0.791666666666667","10.9583333333333","6.41666666666667","4.54166666666667","924.770622201872","31691.5","18.2916666666667","7.59423163397287","0.963430375653507","0.380693493813441","0.414851116999053","4.11232682116317","2.26344613494492","2.24536559755125","583.928739509949","12063.7104646088","8.78198089304441","3.73650325577489","0.487322725512339","NaN","0","53.5","1227.19732760678","1847483.5","250.625","10.6990931232325","NaN",NA,"0","3.53553390593274","59.9321504142099","362414.145668322","0.176776695296637","1.57997236710039",NA,"6","15","23","17","15","9","15","17","4","12","2","6","16","0","3","6","12","17","8","14","14","4","3","13","0","10","18","17","30","29","3","3","3","3","2","4","3","3","2"
"306","24","2","0","17","9","0","0.708333333333333","11.1666666666667","6.125","5.04166666666667","1318.86264117827","38289.9166666667","18.6770833333333","9.02519867570474","0.924887128402744","0","0.464305621487537","2.80785647265214","1.22696160600432","1.96666052565978","471.074131278751","9408.92646427556","5.94333713839117","3.37372476865981","0.324869190770442","NaN","0","50.5","2149.27400308839","1982062.5","178","9.72655939851732","NaN",NA,"0","0.707106781186548","343.042362941279","356589.000004908","22.6274169979695","2.24456778338936",NA,"6","9","21","17","7","8","11","14","4","9","2","6","8","4","2","2","8","12","6","15","12","8","1","16","2","2","15","9","16","24","1","2","1","3","2","4","3","2","4"
"310","24","2","1","8","18","0.0416666666666667","0.333333333333333","12.75","6.5","6.25","1054.28671525234","43293.9583333333","21.46875","7.87904332246812","1.2428126380689","0.204124145231932","0.481543412343077","2.11104754544525","1.17953564923918","1.510830465556","304.746611896532","8236.42224184837","5.3792639810908","3.54265149867266","0.758892902119135","NaN","0","68.5","1065.19421647998","2105629.5","221.25","7.80454823060024","NaN",NA,"0","16.2634559672906","173.217047457553","357495.510898389","7.77817459305202","1.51758157357992",NA,"4","8","15","11","16","10","16","18","4","12","3","4","13","2","2","0","19","24","4","30","15","12","3","24","2","0","20","20","32","27","0","3","3","2","3","3","2","2","6"
"312","24","2","2","16","10","0.0833333333333333","0.666666666666667","12.5","6.5","6","796.485169633607","36871.2916666667","18.8125","6.67260765414431","1.01567230112556","0.28232985128664","0.481543412343077","3.02166093111201","1.50361882311222","2.20670913746948","220.890378929796","9526.20702601703","5.8696205713976","3.65826265639209","0.506177915296537","NaN","0","65.5","1118.29427083333","1936757","212.625","9.3378041543165","NaN",NA,"0","2.12132034355964","220.090668492131","360187.466414366","1.59099025766973","9.31656198129221",NA,"4","7","6","2","10","3","10","10","1","6","1","4","21","0","4","10","10","23","10","30","25","18","4","30","2","17","22","18","27","21","5","1","4","2","1","1","2","4","9"
"313","24","2","5","20","6","0.208333333333333","0.833333333333333","14.1666666666667","7.25","6.91666666666667","553.250427636089","38340.7916666667","22.53125","8.76193320804863","1.19274808104565","0.414851116999053","0.380693493813441","2.46129458100666","1.11316235778192","1.99818758458469","202.562085431964","6794.82338753213","5.72955367599318","3.06751659210051","0.544035843509114","NaN","0","70","652.136583011583","1934824","254.375","11.2183845161358","NaN",NA,"0","0","73.9520392227612","354384.948167949","7.95495128834866","3.37019253103574",NA,"3","12","5","13","17","12","16","16","1","26","5","8","20","2","3","2","8","28","11","20","23","10","6","19","2","2","22","20","29","39","1","4","6","2","5","1","4","3","5"
"315","24","2","3","20","6","0.125","0.833333333333333","11.9583333333333","6.79166666666667","5.16666666666667","579.959827189423","32284.4583333333","19.8229166666667","8.32376588950159","1.0988845220318","0.337831962346088","0.380693493813441","4.51547259471511","1.99954705015839","2.80785647265214","192.069014065308","11907.9351730325","7.58949472979744","3.61515898984359","0.677641763405059","NaN","0","65.5","678.443909538737","1786744.5","276.5","6.90815114904825","NaN",NA,"0","0.707106781186548","73.496514172165","342107.453126207","17.6776695296637","6.94117392116113",NA,"0","6","5","8","18","10","12","12","0","9","2","6","30","2","6","12","16","23","19","32","21","7","4","25","2","14","26","29","32","24","6","3","4","0","2","0","3","6","4"
"319","24","2","1","8","18","0.0416666666666667","0.333333333333333","14.0416666666667","6.625","7.41666666666667","1113.97589147304","44512","22.3854166666667","7.70006604744569","1.25529740612081","0.204124145231932","0.481543412343077","2.6123314036161","0.923721207705668","2.08340579584125","462.156724580303","5274.33995870573","4.55699364967611","3.15076311501349","0.636123386575649","NaN","0","71","1251.20005699629","2123732.5","207","9.29466716353861","NaN",NA,"0","18.3847763108502","232.945437320236","365914.324235196","1.06066017177982","0.77027568965558",NA,"6","14","17","24","15","11","12","14","4","18","2","2","13","2","2","6","12","23","7","10","19","8","2","19","0","6","20","17","28","39","3","4","2","3","2","4","1","2","4"
"320","24","2","15","22","4","0.625","0.916666666666667","12.8333333333333","7.70833333333333","5.125","830.763375686813","37139.5833333333","22.625","9.19503343271286","1.02670540586927","0.49453535504684","0.28232985128664","2.91423293907478","1.94442719108978","1.48360606514052","712.420997196466","7692.7259312693","6.73569337317186","3.86712815649288","0.262237148662249","NaN","0","52","988.399305178591","1988408","274.25","3.40036762718386","NaN",NA,"0","11.3137084989848","283.135811344511","341908.756120694","16.6170093578839","4.80884601541783",NA,"6","10","17","14","13","15","15","15","3","8","1","6","8","6","2","8","12","15","8","22","19","8","5","23","8","8","16","11","28","25","4","4","5","3","1","3","3","2","4"
"321","24","2","5","8","18","0.208333333333333","0.333333333333333","15.3333333333333","7.91666666666667","7.41666666666667","621.092557357539","43651.6666666667","24.90625","9.32433376084323","1.21967455403467","0.414851116999053","0.481543412343077","2.59877340074232","1.74247866100506","2.12473357238577","164.015619473651","6976.91323092699","6.09383709525273","3.48553344425572","0.411168664122933","NaN","0","76.5","548.747317899491","2089580.5","272.375","10.1300999176196","NaN",NA,"0","4.94974746830583","95.6422810196324","355808.354118478","1.59099025766973","3.01241619270745",NA,"6","13","18","16","28","17","21","18","2","15","3","8","18","6","2","6","12","27","4","19","20","6","5","15","6","6","20","22","32","40","3","5","5","3","3","2","4","2","3"
"322","24","2","2","18","8","0.0833333333333333","0.75","10.9166666666667","6.20833333333333","4.70833333333333","1532.62118749986","37563.2083333333","17.5729166666667","7.52173124963018","0.98366108964428","0.28232985128664","0.442325868464691","3.64651908664624","1.74403746137136","2.29326360696159","741.849309259752","9572.90047354767","5.84746283083279","4.2521243601189","0.584665657446927","NaN","0","64.5","1239.90886026542","1960953.5","230.75","11.9861452880585","NaN",NA,"0","13.4350288425444","161.360829073698","360172.617171961","13.4350288425444","0.199103659195792",NA,"6","14","14","16","29","18","13","17","2","9","2","2","25","2","3","2","9","20","10","17","11","8","2","16","2","2","25","24","20","33","1","6","2","3","2","2","1","3","4"
"323","24","2","7","20","6","0.291666666666667","0.833333333333333","11.7083333333333","6.375","5.33333333333333","968.623361418674","35629.0416666667","19.2916666666667","7.58315803640009","1.02341749111816","0.464305621487537","0.380693493813441","3.68875101599051","1.83711730708738","2.27780723440362","398.175588710241","9447.96184820541","7.82438588598195","4.32458663860056","0.531801903022248","NaN","0","64","979.29104477612","1869507","233.5","8.21654446980818","NaN",NA,"0","0","122.033965833733","354150.188716595","3.53553390593274","1.36080636070279",NA,"8","15","15","12","12","9","23","23","3","21","4","8","12","2","2","6","16","13","6","13","6","14","1","21","6","5","19","16","20","29","3","3","1","4","4","3","4","2","7"
"324","24","2","1","7","19","0.0416666666666667","0.291666666666667","15.2916666666667","7.625","7.66666666666667","658.516926568479","42959.9166666667","23.84375","8.41936735370804","1.39439661156453","0.204124145231932","0.464305621487537","3.79334848829147","2.01758572901204","2.79232903671386","231.991009937611","10110.7496342589","6.43057088039826","4.40259103907829","1.00176806544908","NaN","0","69.5","882.83388030888","2062176","242.5","1.5","NaN",NA,"0","2.12132034355964","61.7229141070515","354278.882150771","24.0416305603426","2.12132034355964",NA,"9","17","14","18","16","12","25","22","2","20","4","10","13","0","3","4","14","25","10","12","10","8","2","16","0","4","21","19","33","29","2","4","2","5","4","2","5","3","4"
"325","24","2","24","24","2","1","1","12.9583333333333","7.70833333333333","5.25","529.623153507712","32930.8333333333","21.4583333333333","9.57080874912733","1.01675191815857","0","0","2.6123314036161","1.62799334115364","1.32697760539407","533.732438509342","4706.18829116346","5.24387150927605","3.30983959484617","0.0594352711913922","NaN","0","60.5","931.210955710956","1797383.5","257.875","9.35743448791475","NaN",NA,"0","3.53553390593274","212.390812362133","349563.187027038","7.95495128834866","6.86944973114785",NA,"6","10","17","19","18","11","15","13","4","18","4","6","19","4","4","4","14","21","12","16","14","4","4","14","2","4","19","24","25","33","2","3","4","3","4","4","3","4","2"
"326","24","2","2","14","12","0.0833333333333333","0.583333333333333","13.0833333333333","6.66666666666667","6.41666666666667","994.075925102947","39878.25","20.1770833333333","8.35168583403438","1.23757862697088","0.28232985128664","0.503610155185335","3.25598668230727","1.40392823632607","2.46570682460984","330.209487885008","7947.40024897396","5.75660262063346","3.65002530968084","0.911761263247145","NaN","0","69.5","1063.59363097758","1986016.5","219.25","10.2606619992301","NaN",NA,"0","0.707106781186548","8.60243427514259","360878.309739585","7.77817459305202","1.14570095361378",NA,"8","14","23","22","15","12","21","20","5","16","4","5","13","0","3","4","10","19","9","18","11","4","2","13","0","6","22","16","26","32","2","4","2","4","4","5","2","3","2"
"327","24","2","1","11","15","0.0416666666666667","0.458333333333333","13.3333333333333","6.79166666666667","6.54166666666667","977.852338990666","41187.7083333333","21.1458333333333","8.62310033244817","1.20854788278127","0.204124145231932","0.508977377704051","3.2659863237109","1.74403746137136","2.46680865239609","334.503737268183","8358.14126663166","6.44243602095186","3.30783901451487","0.643501916569849","NaN","0","70","1073.36078746485","2024957.5","204.25","5.5","NaN",NA,"0","1.4142135623731","56.0367209222556","366035.94660156","15.2027957955108","2.82842712474619",NA,"2","7","18","15","18","10","9","6","3","16","4","4","19","2","4","6","11","35","13","18","10","10","2","18","0","6","27","28","25","30","3","3","2","1","4","3","2","4","5"
"328","8","2","1","3","6","0.125","0.428571428571429","11","6","5","851.663417931275","39953.7142857143","19.65625","8.25877391171486","1.50553074441072","0.353553390593274","0.534522483824849","4.65985898008574","2.77746029931765","2.82842712474619","265.46489305089","9935.30399995031","10.4145652642276","4.55370693268404","0.861549770902969","NaN","0","78.5","1018.45240461049","NaN","209.75","11.5462547140559","NaN",NA,"0","2.12132034355964","390.379854631184",NA,"42.4264068711929","3.77399048174245",NA,"8","8","19","10","17","9","30","22","3","16","3","8","15","0","2","4","17","31","10","20","9","6","2","13","0","4","28","27","21","29","2","3","2","4","3","3","4","2","3"
"330","24","2","12","12","14","0.5","0.5","13.625","6.79166666666667","6.83333333333333","893.955949340692","41181.9166666667","20.4166666666667","8.84925716175128","1.08259760346157","0.510753918455249","0.510753918455249","2.61787334864871","1.47380509202383","2.27780723440362","373.627136513127","7410.49022562327","4.59895230664992","2.63711423673556","0.271299221838525","NaN","0","70.5","1138.01614022909","1999370.5","194.5","7.78909580533375","NaN",NA,"0","6.36396103067893","262.264457058089","352706.983776193","25.809397513309","7.12635763000036",NA,"4","8","14","7","12","7","24","16","2","12","2","6","18","2","3","12","9","16","7","18","17","10","3","23","0","13","16","16","21","26","6","2","3","2","2","2","3","3","5"
"332","24","2","2","16","10","0.0833333333333333","0.666666666666667","12.25","6.5","5.75","884.042161310912","39095.875","19.8854166666667","6.60988438241804","1.13857473243104","0.28232985128664","0.481543412343077","3.08220700148449","1.56037899521099","1.91674543001366","376.025106095172","9126.63069556673","6.32927084142067","3.8461656955511","0.511461623360932","NaN","0","67","992.226923327471","1967343","201","5.80384362846499","NaN",NA,"0","4.24264068711928","100.872598621638","360500.00761165","8.83883476483184","0.0761463896225737",NA,"2","6","14","13","20","12","13","17","3","10","1","6","20","2","3","2","15","21","4","20","20","8","2","14","0","2","18","22","28","23","1","4","2","1","1","3","3","3","4"
"333","24","2","5","16","10","0.208333333333333","0.666666666666667","12.9583333333333","6.875","6.08333333333333","609.907617379216","35654.1666666667","21.6145833333333","7.75498189840901","1.21250217871177","0.414851116999053","0.481543412343077","3.68875101599051","1.94069687169998","2.51805077592667","311.539548987589","11271.9012927555","7.69351052294508","3.26765198328124","0.567195617176318","NaN","0","66","822.819068255688","2090136","248.25","12.5822295321616","NaN",NA,"0","4.24264068711928","178.805318001493","354305.752208456","24.7487373415292","0",NA,"10","11","15","10","17","10","27","21","3","10","2","10","17","2","4","8","9","23","10","15","14","6","2","21","2","8","22","17","24","28","4","3","2","5","2","3","5","4","3"
"334","24","2","4","15","11","0.166666666666667","0.625","12","6.04166666666667","5.95833333333333","972.179712243775","37305.75","18.3958333333333","7.49093992786512","0.949969991897192","0.380693493813441","0.49453535504684","3.07867842906095","1.51741102931409","1.92193667421956","470.262061254284","9980.75248208749","6.67853336976125","3.56315478150903","0.415602670968434","NaN","0","55.5","1661.48165137615","1960449.5","177.25","9.5","NaN",NA,"0","2.12132034355964","216.536855497488","391167.935818492","11.667261889578","2.12132034355964",NA,"4","12","11","13","18","12","14","19","1","6","1","4","11","2","2","4","14","8","2","18","12","8","1","19","0","4","15","13","23","22","2","4","1","2","1","1","2","2","4"
"335","12","2","1","5","8","0.0833333333333333","0.454545454545455","10.6666666666667","5.75","4.91666666666667","924.346413771414","38774.3636363636","18.2291666666667","8.19871754433962","1.01992430602631","0.288675134594813","0.522232967867094","3.02514712890384","1.60255477852765","2.19330938551907","513.729854799425","9826.8367674723","6.73310877588345","3.39364201703519","0.559058022810172","NaN","0","57.5","1161.6361662531","NaN","187.625","11.5571188444416","NaN",NA,"0","7.77817459305202","224.72178108477",NA,"4.7729707730092","3.30582940136167",NA,"6","10","10","17","13","4","13","14","2","18","3","2","18","2","4","4","7","22","10","12","15","2","5","11","2","4","18","16","30","24","2","1","4","3","3","2","1","4","1"
"336","24","2","4","13","13","0.166666666666667","0.541666666666667","12.5833333333333","6.70833333333333","5.875","983.980794263606","39587.9166666667","20.8854166666667","7.72205415010053","1.08964594780796","0.380693493813441","0.508977377704051","3.32208246195936","1.60106395784224","2.2710369208034","237.119772526415","10052.8367699465","6.46267677693914","3.49262958659073","0.472009714494295","NaN","0","52.5","1316.36140979689","1971263.5","203.25","7.7414706591222","NaN",NA,"0","10.6066017177982","278.233001421395","359729.968326938","1.06066017177982","4.58413176816507",NA,"4","2","12","9","12","9","8","10","3","6","1","0","13","2","1","11","15","16","6","21","11","14","2","29","2","15","17","15","23","21","6","3","2","2","1","3","0","1","7"
"337","24","2","0","12","14","0","0.5","10.5416666666667","5.625","4.91666666666667","1070.29538817664","39210.7916666667","18.5104166666667","7.73133560573113","1.03555661626275","0","0.510753918455249","3.0924756744559","1.73987755691126","1.66594187138705","280.8502462932","12732.186369093","7.27281984614584","4.27453172638624","0.464366399307523","NaN","0","45.5","1620.97674646782","1990197","175.125","9.31346641781745","NaN",NA,"0","3.53553390593274","424.571138434603","354563.139076808","17.1473394437738","3.97884236535869",NA,"6","8","10","7","4","4","18","16","1","7","1","6","4","2","1","2","10","14","5","18","12","14","2","20","6","6","17","10","21","18","1","1","2","3","1","1","3","1","7"
"338","24","2","0","15","11","0","0.625","10.8333333333333","5.75","5.08333333333333","1022.08993731962","37806.4583333333","17.8125","6.61537206400805","1.20078751772156","0","0.49453535504684","2.91423293907478","1.62186151770387","1.71734544059104","292.335290421771","10229.2129153593","6.35723227308182","4.55012880330737","0.691560066449004","NaN","0","49.5","1481.55178253119","1912750","183.375","4.15519253464867","NaN",NA,"0","12.0208152801713","160.509331965666","355097.711803385","0.176776695296637","5.87632963677158",NA,"6","8","11","9","14","7","16","12","1","15","3","8","12","2","2","8","8","14","8","10","10","6","1","15","0","8","12","15","22","19","4","2","1","3","3","1","4","2","3"
"339","24","2","1","15","11","0.0416666666666667","0.625","10.8333333333333","5.91666666666667","4.91666666666667","839.783276850465","35137.5","17.9375","8.56187041255032","1.01210099107879","0.204124145231932","0.49453535504684","4.07181902163241","1.93180849412436","2.32035729382664","535.095357386957","12425.291580867","7.97729454519949","3.57779991255673","0.49809194159271","NaN","0","61","766.752648305084","1891477","232.625","8.15519253464867","NaN",NA,"0","9.89949493661167","180.757916209779","357558.443401914","20.6828733497065","0.219475387279199",NA,"6","7","15","15","12","13","22","20","2","10","1","8","15","2","2","2","18","16","6","17","18","10","2","19","4","2","14","15","31","27","1","4","2","3","1","2","4","2","5"
"340","24","2","2","10","16","0.0833333333333333","0.416666666666667","11.25","5.41666666666667","5.83333333333333","1188.74329004329","42268.4166666667","17.1354166666667","6.77409913513305","0.989969639850513","0.28232985128664","0.503610155185335","2.89302008589489","1.6396358733272","1.63299316185545","741.677730892173","9287.144569437","6.33356275804897","4.55159046152553","0.366557272970131","NaN","0","61.5","1447.21135593221","2035542.5","150.875","8.34595618820872","NaN",NA,"0","9.19238815542512","296.205113061331","362186.45728478","11.8440385848747","0.0503051587932739",NA,"2","29","15","5","9","0","16","29","3","12","2","2","15","0","2","4","9","10","7","11","7","6","1","14","2","8","27","11","13","25","2","0","1","1","2","3","1","2","3"
"341","9","2","0","1","10","0","0.111111111111111","11","5.44444444444444","5.55555555555556","1178.52097902098","46841.375","18.2777777777778","9.36376816027899","0.8864145291474","0","0.333333333333333","3.64005494464026","2.185812841434","2.2973414586817","433.718596945077","3398.3634690623","7.30522548895272","3.94499069334942","0.481941274925859","NaN","0","52","1352.30777126099","NaN","179","7.75","NaN",NA,"0","9.89949493661167","176.067722251217",NA,"2.47487373415292","5.65685424949238",NA,"4","9","3","9","4","0","17","18","0","35","7","6","8","0","1","0","12","21","7","14","16","2","3","7","2","0","17","14","25","25","0","0","3","2","7","0","3","1","1"
"342","24","2","0","7","19","0","0.291666666666667","11.0833333333333","5.08333333333333","6","1367.57145863396","43236.7083333333","16.5520833333333","6.73007822320479","0.919645806181563","0","0.464305621487537","1.99818758458469","1.4116492564332","2.1058923544891","442.958498646003","7738.21780110374","4.7668346795666","3.15889104529528","0.504051491978136","NaN","0","53.5","1776.21349603671","2084198","147.625","0.625","NaN",NA,"0","7.77817459305202","157.83422796792","360426.468506407","18.9151063967401","0.883883476483184",NA,"2","7","15","5","6","9","13","11","2","5","1","4","12","2","2","6","11","24","6","15","12","4","2","14","2","6","20","17","16","23","3","3","2","1","1","2","2","2","2"
"343","24","2","0","14","12","0","0.583333333333333","10.4166666666667","5.375","5.04166666666667","974.509638162763","36241.75","16.9270833333333","5.99864805052382","0.909968468844801","0","0.503610155185335","3.33514443552256","1.49818731051605","1.94442719108978","730.74833071836","11690.9714709592","7.67317432140484","4.32108992683217","0.372516929162789","NaN","0","60","1266.95302510526","1911550","173.375","7.56346641781745","NaN",NA,"0","5.65685424949238","188.97067620909","362755.678243636","12.1975919754679","6.4537160995116",NA,"2","11","17","10","21","19","19","21","2","4","0","6","10","4","2","0","5","12","5","12","13","10","2","20","2","0","15","14","21","26","0","6","2","1","0","2","3","2","5"
"344","24","2","4","10","16","0.166666666666667","0.416666666666667","11.25","6","5.25","906.935935592186","39248.875","19.34375","8.75929976866794","1.04486183107152","0.380693493813441","0.503610155185335","3.35248123556011","1.74455675197729","2.02699177407653","313.230194450283","12867.3354469927","7.44465539979784","3.35429330017472","0.510366898343482","NaN","0","60.5","1297.30141625615","1983477.5","181.875","6.46438993767145","NaN",NA,"0","0.707106781186548","50.3025488446437","357851.892716107","10.0762716319083","3.83872706342403",NA,"6","10","15","19","14","7","17","16","1","14","1","6","15","2","3","2","8","21","6","10","12","8","2","11","0","4","17","11","24","31","1","2","2","3","1","1","3","3","4"
"345","24","2","2","15","11","0.0833333333333333","0.625","9.70833333333333","5.125","4.58333333333333","984.82081922707","34206.75","15.0625","6.77355508937285","0.836246262026093","0.28232985128664","0.49453535504684","3.97250514177758","1.7769661492702","2.74917642476665","372.217722593963","13973.81267337","7.47177660614756","3.17842478643492","0.404548150667874","NaN","0","50","1181.40031430513","1843076.5","193.5","15.1892573453304","NaN",NA,"0","8.48528137423857","128.879821564839","357175.898633292","26.1629509039023","1.95522955037467",NA,"4","6","7","5","9","7","9","10","1","11","2","2","17","2","4","8","10","24","11","16","14","9","3","18","2","8","18","16","22","23","4","2","3","2","2","1","1","4","4"
"346","24","2","2","11","15","0.0833333333333333","0.458333333333333","10.9583333333333","5.58333333333333","5.375","1079.71725832038","42700.5833333333","17.5625","8.29811108714229","0.996886426111102","0.28232985128664","0.508977377704051","2.45798020062544","1.52989532653215","1.88385589774756","330.611141058877","8342.8956755807","5.70480823135377","4.08944801872537","0.667282410166471","NaN","0","47","1980.1232257326","2121730","170.5","7.24632263825763","NaN",NA,"0","4.24264068711928","50.8994660471723","379754.52526336","9.54594154601839","1.96382698946468",NA,"4","4","6","6","12","17","21","20","0","2","0","6","7","6","1","2","15","13","11","12","17","0","3","2","0","2","14","14","10","21","1","5","3","2","0","0","3","1","0"
"347","24","2","0","11","15","0","0.458333333333333","10.7083333333333","5.58333333333333","5.125","1425.90101807914","42257.2083333333","17.1458333333333","8.34311896149103","0.860975912019099","0","0.508977377704051","2.17653826995523","1.05980583400786","1.62353612993903","687.153997039865","7212.3423197543","5.02543350210288","3.72734772159023","0.288224737401165","NaN","0","43.5","1786.52508042417","2056610.5","163.5","4.42295150323853","NaN",NA,"0","16.2634559672906","732.3710417491","359906.745022235","15.556349186104","6.2549980015984",NA,"6","11","10","7","13","4","18","19","1","4","1","6","18","2","5","2","6","13","9","8","5","4","1","11","2","2","15","15","15","11","1","1","1","3","1","1","3","4","2"
"348","24","2","3","6","20","0.125","0.25","13.4583333333333","6.875","6.58333333333333","605.990841579444","44200.7083333333","22.2916666666667","8.86231833386218","1.23814808711982","0.337831962346088","0.442325868464691","2.32152810743768","1.45400496380948","2.14509889640602","265.316046527394","5971.0215896675","4.12354497834155","3.58452913639912","0.502287120703364","NaN","0","56.5","734.596952626578","2075416.5","205.5","4.38540223912283","NaN",NA,"0","13.4350288425444","332.736740933498","360059.480086971","22.9809703885628","4.43412837006248",NA,"6","8","10","8","10","7","15","20","2","11","2","6","9","2","2","8","6","24","6","19","17","8","5","24","2","10","20","11","28","23","4","2","5","3","2","2","3","2","4"
"350","8","2","0","1","8","0","0.142857142857143","8.75","4.875","3.875","38473.117016317","77432.2857142857","14.875","6.89190668558803","0.875486049628593","0","0.377964473009227","4.71320333894961","2.99702233177246","2.3566016694748","97946.8171258854","82902.5760148909","10.8092222529785","5.15839091601771","0.521514354391814","NaN","0","38","3113.88612836439","NaN","120.5","17.0061027781595","NaN",NA,"0","0","125.62198484484",NA,"22.6274169979695","1.52804993287343",NA,"0","4","20","8","14","11","4","5","5","4","1","2","12","2","2","4","5","9","4","3","2","6","0","10","0","11","8","12","6","18","2","4","0","0","1","5","1","2","3"
"351","24","2","6","13","13","0.25","0.541666666666667","10.75","5.45833333333333","5.29166666666667","784.102123570874","38071.9583333333","17.15625","8.45276503032444","0.846750236586263","0.442325868464691","0.508977377704051","3.44206712412128","1.50301629100103","2.40432882556635","699.940890409845","9715.90060932914","6.2566540665675","2.90543583657901","0.294730935164284","NaN","0","56","1272.42808871121","1958285","158","5.90815114904825","NaN",NA,"0","1.4142135623731","20.1409667964319","360221.407539863","18.3847763108502","8.35538748353422",NA,"8","12","13","7","10","6","25","16","2","4","1","10","17","0","3","0","12","21","9","11","7","4","1","8","0","0","23","15","11","21","0","2","1","4","1","2","5","3","2"
"352","24","2","16","17","9","0.666666666666667","0.708333333333333","13.8333333333333","7.41666666666667","6.41666666666667","447.153242449344","35852","22.25","9.07801075224228","1.29816968155995","0.481543412343077","0.464305621487537","3.66732536902834","1.52989532653215","2.78062655852436","191.541998736291","10282.0277436768","6.13923589637215","3.54031623969534","0.725261707051049","NaN","0","69","579.815284075754","1867171","264.875","6.41966716353861","NaN",NA,"0","8.48528137423857","275.172046781347","345038.410734225","27.753941161572","4.83613968147823",NA,"6","6","15","18","18","13","12","9","3","22","4","6","25","2","5","8","10","21","12","19","17","12","4","26","2","8","18","19","32","32","4","4","4","3","4","3","3","5","6"
"353","24","2","4","14","12","0.166666666666667","0.583333333333333","16.4166666666667","8.5","7.91666666666667","728.647557629562","40063.9583333333","27.5416666666667","10.2580610609258","1.47022607242501","0.380693493813441","0.503610155185335","3.21567717753896","1.6681153124566","2.33901998553959","201.803179772689","7359.81436721929","6.21475569960695","4.22226190405329","0.632305090956556","NaN","0","76.5","1282.96597580501","1958632.5","245.375","9.625","NaN",NA,"0","2.12132034355964","180.098814035469","342844.258392203","10.4298250225016","3.00520382004283",NA,"7","11","14","15","16","9","19","16","2","16","2","6","13","2","3","6","17","40","9","18","18","8","3","22","2","8","26","24","34","36","3","3","3","4","2","2","3","3","4"
"354","24","2","4","12","14","0.166666666666667","0.5","10.8333333333333","6.08333333333333","4.75","853.362532721908","38058.1666666667","18.75","8.48379483212277","1.07187259052017","0.380693493813441","0.510753918455249","3.66732536902834","2.06243137786589","2.32659482468712","377.120462740541","13085.1144490573","8.53573052832468","3.58578355947804","0.475821615370972","NaN","0","53.5","924.767797552836","1947611","228.75","5.5","NaN",NA,"0","2.12132034355964","293.143740238589","356804.66757317","3.18198051533946","7.77817459305202",NA,"6","4","9","11","8","8","20","16","2","14","2","10","8","2","2","2","19","22","4","19","18","8","3","17","4","4","18","13","26","28","1","2","3","3","2","2","5","2","4"
"355","24","2","0","8","18","0","0.333333333333333","10.875","5.33333333333333","5.54166666666667","1318.55398941336","45137.4166666667","17.65625","8.71618315031128","0.933281454116692","0","0.481543412343077","2.62616433804794","1.63299316185545","1.91059213827561","1341.21547114988","8860.45356536887","6.09071482382958","4.32441567284459","0.380117537077881","NaN","0","52","857.208737864078","2536575.5","168.875","8.28307317530703","NaN",NA,"0","2.82842712474619","96.5303733035343","362583.851295807","14.6724657096209","2.20088562742776",NA,"4","6","6","5","14","3","9","12","0","10","2","2","16","0","3","6","16","21","9","13","15","10","2","18","0","6","18","20","21","20","3","1","2","2","2","0","1","3","5"
"356","24","2","4","13","13","0.166666666666667","0.541666666666667","10.7083333333333","6.25","4.45833333333333","932.380604118104","40917.7916666667","19.09375","7.44427741968825","0.942048524230757","0.380693493813441","0.508977377704051","1.89917983823834","1.18871505343411","1.47380509202383","449.573961957078","7344.65984638213","4.46472435733232","2.78230518103301","0.397200296641355","NaN","0","43","1250.50641543746","2049398","183.625","2.85038780468937","NaN",NA,"0","0","10.9475817811069","358568.191885449","15.3795724908074","1.03105709141458",NA,"0","4","8","8","6","3","4","6","1","12","4","2","11","0","3","6","8","25","6","24","16","10","5","23","0","6","16","13","31","14","3","1","5","0","3","1","1","3","5"
"357","24","2","2","8","18","0.0833333333333333","0.333333333333333","11.875","6.29166666666667","5.58333333333333","1031.40120909183","44056.5","19.15625","8.43322167616702","1.14271594236717","0.28232985128664","0.481543412343077","2.45503032833476","0.806450444131925","2.08340579584125","416.637019651674","6523.77542065409","3.84468329955967","2.47114681927097","0.600206721743841","NaN","0","51","1954.75148809524","2084063.5","132.5","10.7754151164338","NaN",NA,"0","11.3137084989848","768.145669588006","360820.326983528","8.48528137423857","3.92502969887605",NA,"6","12","16","19","17","10","19","15","3","8","1","4","5","2","1","2","5","11","2","4","5","4","1","10","4","1","13","12","13","25","1","3","1","3","1","3","2","1","2"
"358","24","2","1","13","13","0.0416666666666667","0.541666666666667","10.2083333333333","5.04166666666667","5.16666666666667","738.451743279868","36650.5416666667","15.6458333333333","5.38760051345228","0.995898623647156","0.204124145231932","0.508977377704051","3.53835096284016","1.51741102931409","2.37132629677932","427.76054500337","12378.596432971","7.34954770372132","3.80071650555507","0.566132045989595","NaN","0","49","1185.73715796969","1889524","168.125","9.87552594545152","NaN",NA,"0","12.7279220613579","178.595134279646","356854.165047853","0.176776695296637","2.78576284012598",NA,"6","9","12","8","13","7","14","15","2","9","2","4","11","2","2","2","12","14","6","14","12","8","1","15","0","2","14","16","16","20","1","2","1","3","2","2","2","2","4"
"359","24","2","19","19","7","0.791666666666667","0.791666666666667","14.9166666666667","8.16666666666667","6.75","769.604469845743","36180.0833333333","24.46875","8.27872199766835","1.269852641658","0.414851116999053","0.414851116999053","3.83254560274258","2.16024689946929","2.57496306431931","792.311218514162","9136.43771279103","8.44622133804841","3.88023861910653","0.284923007184859","NaN","0","83.5","949.381207028266","1865207","292.25","8.06775768080285","NaN",NA,"0","14.8492424049175","328.182896257746","346125.94096369","25.809397513309","6.3105128165383",NA,"8","15","16","14","29","16","20","23","2","14","1","9","17","2","3","6","20","29","10","25","24","6","3","19","2","10","30","26","27","44","3","5","3","4","1","2","4","3","3"
"360","24","2","6","20","6","0.25","0.833333333333333","14.75","7.75","7","545.045307458136","32725.75","23.40625","7.91148304265988","1.20132937431844","0.442325868464691","0.380693493813441","4.71122618581543","2.13154363334874","2.99274485032226","117.987861954876","10093.2498289052","7.67400060764182","3.81210865747396","0.503580224806899","NaN","0","95","624.147222222222","1799759.5","293.625","7.10743448791475","NaN",NA,"0","4.24264068711928","81.1719301092088","347341.45752055","5.48007755419574","10.0514302464873",NA,"10","18","29","16","24","13","31","30","6","11","2","12","25","2","5","6","10","25","13","19","17","10","3","25","2","10","26","22","34","40","3","4","3","5","2","6","6","5","5"
"361","24","2","10","14","12","0.416666666666667","0.583333333333333","16.2916666666667","8.41666666666667","7.875","685.313760480933","38586.7083333333","27.71875","9.18184389330639","1.32405352970111","0.503610155185335","0.503610155185335","4.37859583077445","1.90916933147164","3.09715858559871","257.530945503449","9030.70461153487","8.35012122406146","3.25267331693989","0.353891080058977","NaN","0","81.5","809.039197976879","1949239","301.375","4.72526454285895","NaN",NA,"0","4.94974746830583","30.0190841632991","358391.415190152","6.54073772597557","6.68253320231183",NA,"8","14","12","11","16","13","28","24","1","10","1","14","15","2","3","8","23","26","14","27","20","18","4","31","0","8","33","25","25","37","4","4","4","4","1","1","7","3","9"
"362","24","2","4","16","10","0.166666666666667","0.666666666666667","13.9166666666667","7.79166666666667","6.125","690.042159684105","33660.5833333333","24.53125","9.30656622194526","1.26806457054449","0.380693493813441","0.481543412343077","5.19963766853595","2.53633022583668","2.83322676696439","196.078873217923","12000.6671876723","10.1927917038165","3.52935086873753","0.634948811217079","NaN","0","76","783.537580012389","1836118.5","326","10.2062297069223","NaN",NA,"0","11.3137084989848","2.36077008982128","353346.208306386","20.1525432638166","3.36017117704959",NA,"8","8","22","34","34","11","19","12","4","16","2","8","31","4","6","2","12","25","15","20","15","8","3","16","4","4","21","25","35","42","1","3","3","4","2","4","4","6","4"
"363","24","2","2","16","10","0.0833333333333333","0.666666666666667","12","6.375","5.625","1676.02923705498","38259.625","19.90625","8.30917152103541","1.08115569964289","0.28232985128664","0.481543412343077","3.787852437326","1.68915981173044","2.71569512280005","985.738604750505","8975.29514501988","6.91281595708447","3.28730461291644","0.679486769137515","NaN","0","86","837.749404416973","1941087.5","307.125","5.21098408196104","NaN",NA,"0","5.65685424949238","99.7050155150694","355855.023166036","45.4316106912357","5.60167740905324",NA,"8","14","20","24","33","19","22","19","4","16","2","12","17","2","3","4","23","40","10","19","14","6","2","16","2","4","27","27","35","45","2","6","2","4","2","4","6","3","3"
"364","24","2","4","22","4","0.166666666666667","0.916666666666667","12.5416666666667","6.875","5.66666666666667","465.866478775854","27475.0833333333","21.2708333333333","6.36009135921943","1.12871053601903","0.380693493813441","0.28232985128664","4.8899112347831","2.23241923754789","2.80785647265214","116.619064347484","10590.5137943131","9.5114109576759","2.52428818771943","0.505930800522171","NaN","0","82","563.229231466103","1660726.5","350.75","5.28019253464867","NaN",NA,"0","1.4142135623731","10.9742374554301","349802.189119079","13.4350288425444","4.28533937910185",NA,"4","22","24","30","22","13","13","24","5","39","9","4","31","2","6","0","23","30","12","17","16","6","2","12","0","0","28","29","37","49","0","4","2","2","9","5","2","6","3"
"365","24","2","3","19","7","0.125","0.791666666666667","13.4166666666667","7.54166666666667","5.875","929.064593958674","33641.25","23.1041666666667","9.64930281443028","1.26237954050084","0.337831962346088","0.414851116999053","4.2109243709631","2.18650339616687","2.36482373642262","480.703323420673","9040.43894783684","8.28235311903603","3.77640227160297","0.760721358797447","NaN","0","72","1123.56053258281","1857244","276.25","2.47708172829899","NaN",NA,"0","1.4142135623731","228.490220281295","357325.098164123","24.0416305603426","0.321142059927561",NA,"4","5","29","26","22","11","13","10","6","16","3","8","25","4","5","2","13","26","12","16","15","10","2","19","0","4","16","24","34","33","1","3","2","2","3","6","4","5","5"
"366","6","2","0","3","4","0","0.6","14.1666666666667","7.66666666666667","6.5","721.899206349206","39989.6","24.9166666666667","6.0319559938217","1.520621519402","0","0.547722557505166","7.41395081361258","4.7187568984497","2.73861278752583","377.548413656877","8538.01998709303","15.3669016612545","5.16126033700282","0.701568072515117","NaN","0","78","1088.90318497346","NaN","265.25","3.75","NaN",NA,"0","1.4142135623731","65.3823441205453",NA,"3.53553390593274","0",NA,"6","11","8","8","9","3","26","27","1","22","4","10","18","0","4","6","19","36","11","22","21","10","3","24","0","6","31","21","33","32","3","1","3","3","4","1","5","4","5"
"367","24","2","6","15","11","0.25","0.625","13.0833333333333","6.70833333333333","6.375","1443.04055470154","39945.8333333333","20.1041666666667","7.91334950677048","1.2176405115807","0.442325868464691","0.49453535504684","3.59851015870719","1.3666578295932","2.8713350931912","637.093886122359","8719.19791218688","5.07172290138231","3.48033975108559","0.822949675029851","NaN","0","71","1353.73778843272","1966681.5","250.375","9.97433325928504","NaN",NA,"0","2.82842712474619","49.2063255319224","351301.255495195","24.2184072556393","1.89416262909012",NA,"2","8","11","11","12","4","20","23","1","24","6","8","19","2","3","2","25","36","11","16","14","6","2","13","0","6","26","32","26","26","1","1","2","1","6","1","4","3","3"
"368","24","2","4","19","7","0.166666666666667","0.791666666666667","10.875","5.75","5.125","1187.5424172471","30025.2083333333","16.6666666666667","7.09738992495725","0.906471118326459","0.380693493813441","0.414851116999053","4.37694056341324","2.04832911757682","2.65906979485553","591.742365462303","13148.3892482796","7.75531608229038","3.70692272514646","0.405667311705961","NaN","0","56.5","1942.0569105691","1772342.5","219.75","4.99371802621109","NaN",NA,"0","0.707106781186548","138.512445413893","381481.987129799","9.19238815542512","4.69047551420844",NA,"0","10","22","14","20","6","8","11","4","14","3","4","17","0","3","4","12","22","10","18","13","8","2","15","0","4","23","24","19","32","2","2","2","0","3","4","2","3","4"
"369","24","2","16","19","7","0.666666666666667","0.791666666666667","15.2083333333333","7.875","7.33333333333333","655.701543861983","35994.7083333333","25.40625","9.38999955227396","1.31485453315149","0.481543412343077","0.414851116999053","3.85587261501056","1.96297245766853","2.79232903671386","375.135792653094","8225.12383138799","7.88773556114863","3.79892605990896","0.433160683744547","NaN","0","80.5","1213.32732963025","1877393.5","233.125","10.8817789900455","NaN",NA,"0","6.36396103067893","214.564435957557","342203.619648448","13.9653589284343","1.72808333815471",NA,"8","13","15","17","29","15","17","16","3","16","3","6","24","0","3","8","10","25","6","15","15","12","3","26","0","8","20","26","25","39","4","5","3","4","3","3","3","3","6"
"371","24","2","6","19","7","0.25","0.791666666666667","12.625","6.375","6.25","1320.00658503899","34085.5416666667","19.3229166666667","8.03356585740704","0.991352318134773","0.442325868464691","0.414851116999053","4.97657556436412","3.04762915694493","2.30783165688525","1030.9353558023","12060.7394141313","12.1517754935206","4.4460347294351","0.548686115680428","NaN","0","92.5","1033.92324840765","1852967.5","253.375","3.04394891547148","NaN",NA,"0","14.8492424049175","179.920843347253","359796.43636437","4.06586399182265","4.30479383943064",NA,"4","10","7","14","7","7","26","26","0","5","0","8","9","2","1","10","28","28","6","31","46","20","3","25","6","10","29","16","30","40","5","2","3","2","0","0","4","1","10"
"372","24","2","0","24","2","0","1","10.375","6.125","4.25","525.301986368071","22076.8333333333","17.5104166666667","7.08223956788054","1.02635177275493","0","0","5.1314249228777","2.89395922569756","2.47157756345495","200.249046942688","11231.6172193642","10.4625312753848","4.27590664108607","0.500166873140713","NaN","0","90","698.518612111491","1572721.5","287.625","8.3800999176196","NaN",NA,"0","4.24264068711928","143.132146771521","365293.484481314","12.9046987566545","5.48728992686037",NA,"8","17","33","13","5","0","32","27","7","17","3","14","13","0","3","6","12","28","12","27","23","16","3","41","0","6","31","16","29","40","3","0","3","4","3","7","7","3","8"
"373","24","2","5","17","9","0.208333333333333","0.708333333333333","13","6.66666666666667","6.33333333333333","984.403361288336","34554.4166666667","20.71875","8.28858037070294","1.15548345218288","0.414851116999053","0.464305621487537","4.45264943112769","1.80979620920163","3.08807899576063","471.212470616001","10035.2387459595","7.53481502759026","4.57247887541912","0.479266782051321","NaN","0","81.5","978.112506541081","1907584.5","264.625","14.8025825275938","NaN",NA,"0","2.12132034355964","228.173848794252","382696.796579877","35.8856691452173","0.282136540606896",NA,"10","7","17","14","19","11","34","29","3","15","3","10","23","4","4","2","16","29","6","16","16","6","4","14","4","2","25","22","26","29","1","3","3","5","3","3","5","4","3"
"374","24","2","1","17","9","0.0416666666666667","0.708333333333333","12.4166666666667","6.79166666666667","5.625","1227.71498203916","34367.9166666667","19.7604166666667","8.56897688441624","1.06905310561946","0.204124145231932","0.464305621487537","4.54845092279794","2.2837643727287","2.6508817236994","396.302190340378","11360.3062034538","8.29925322945786","2.69907990525728","0.867416199967041","NaN","0","71","1200.80954664342","1834141","265.5","9.34053370348474","NaN",NA,"0","0","14.2012564086638","355704.409421643","2.12132034355964","3.50126552379732",NA,"2","16","21","12","14","4","24","29","3","7","1","10","11","2","2","8","18","21","10","24","23","10","3","22","0","8","30","17","20","31","4","1","3","1","1","3","5","2","5"
"375","24","2","6","21","5","0.25","0.875","11.75","6.45833333333333","5.29166666666667","1061.05784036565","31875.5833333333","18.3645833333333","6.25027745569714","1.0543221048126","0.442325868464691","0.337831962346088","3.37831962346088","1.88769854508114","1.94442719108978","419.459205162017","11071.9515184784","6.91956079227367","4.58129116717158","0.341054675384276","NaN","0","88.5","1123.58231376511","1823046.5","250.125","4.72526454285895","NaN",NA,"0","17.6776695296637","263.587591875945","362568.294946621","10.7833784130948","6.68253320231183",NA,"6","8","14","22","34","19","23","23","1","14","3","5","23","2","2","4","14","28","6","18","19","10","1","23","2","6","22","32","25","44","2","6","1","3","3","1","3","2","5"
"376","24","2","3","18","8","0.125","0.75","13.3333333333333","7.25","6.08333333333333","994.781531187036","34465.625","21.0729166666667","8.9313718061319","1.29488006055727","0.337831962346088","0.442325868464691","4.4002634967215","2.02699177407653","2.84248309492379","441.373954466911","10192.748235505","7.42113578507897","3.14830419401478","1.11982727086618","NaN","0","77.5","1024.30864197531","1843810.5","270.125","5.40598067417457","NaN",NA,"0","4.94974746830583","5.6306651094464","345975.327219298","4.06586399182265","3.74008634939118",NA,"6","16","25","17","23","18","19","19","4","17","2","8","22","0","3","9","12","19","15","18","12","10","3","21","0","8","30","21","22","45","4","6","3","3","2","4","4","3","5"
"377","24","2","8","17","9","0.333333333333333","0.708333333333333","13.1666666666667","6.95833333333333","6.20833333333333","1587.63566731292","40008.9166666667","20.6979166666667","9.0265137596214","1.23952704815928","0.481543412343077","0.464305621487537","3.71444497190029","2.17653826995523","2.20629862511592","826.906695545539","7731.36451152996","8.18733750806784","3.85591969707544","1.15518656952638","NaN","0","55","2743.35486130569","2003395","161.5","6.60850799679441","NaN",NA,"0","5.65685424949238","1273.72160874452","352545.056323302","76.0139789775539","3.81185573082305",NA,"6","5","5","5","12","6","13","8","1","9","2","4","16","0","3","6","8","40","11","9","8","8","2","19","0","8","18","25","22","25","3","2","2","3","2","1","2","3","4"
"385","24","2","6","15","11","0.25","0.625","13.0416666666667","6.5","6.54166666666667","718.596884821513","36562.4583333333","19.875","8.22273112327469","1.01911940695462","0.442325868464691","0.49453535504684","3.92848202420385","1.56037899521099","2.96324097930784","344.83161482135","9645.01371504498","7.06260821386892","3.50794519926403","0.445743823750846","NaN","0","71","744.94445177464","1903232","260.75","7.03019253464867","NaN",NA,"0","7.07106781186548","162.742785542569","358377.273054528","10.6066017177982","1.81046564494893",NA,"6","22","28","15","17","7","17","22","5","15","2","6","19","2","3","4","11","30","13","12","15","8","3","16","2","4","31","22","25","40","2","2","3","3","2","5","3","3","4"
"386","24","2","0","2","24","0","0.0833333333333333","11.6666666666667","5.66666666666667","6","2123.97073031135","46921.4583333333","19","8.44972463309388","1.0192658733799","0","0.28232985128664","2.16024689946929","1.37260991217989","1.79370881258576","910.403636724524","3384.26425090115","4.21049413603264","3.32612639957783","0.390638560424688","NaN","0","56","1896.52035749752","2140714.5","180.25","11.8848643240047","NaN",NA,"0","0","176.507755974699","356088.368403828","11.667261889578","0",NA,"0","14","14","14","12","7","0","4","2","12","2","0","25","3","4","4","14","24","10","19","11","8","1","12","2","4","21","22","24","26","2","2","1","0","2","2","0","4","4"
"387","24","2","3","19","7","0.125","0.791666666666667","12.75","6.75","6","674.488154380342","35744.3333333333","20.5416666666667","8.55939831846944","1.00906377136497","0.337831962346088","0.414851116999053","3.19306313340545","1.510830465556","2.16694535554385","445.906153856669","9565.52313015985","5.85915609494469","4.12735208419433","0.380651531605823","NaN","0","85.5","856.674087145378","1888389","212.375","6.3073825544365","NaN",NA,"0","6.36396103067893","313.734649940524","343710.464199157","69.119687860985","0.788257967914251",NA,"4","8","16","12","17","7","17","16","2","9","1","6","17","2","4","4","15","58","10","22","17","8","1","21","2","4","35","30","33","36","2","2","1","2","1","2","3","4","4"
"388","24","2","8","13","13","0.333333333333333","0.541666666666667","14.125","7.625","6.5","647.897764337378","39417.2916666667","24.1354166666667","9.08469314626657","1.23939324732833","0.481543412343077","0.508977377704051","3.27457265715032","1.68915981173044","2.26504630915324","283.763246982779","8424.27411647394","6.97821889519635","3.61640531657472","0.372707117148728","NaN","0","73","664.987878787879","1990444.5","251.625","9.31346641781745","NaN",NA,"0","12.7279220613579","17.5662466429311","355439.244378698","23.864853865046","3.97884236535869",NA,"8","16","27","9","9","0","30","32","5","18","2","10","16","0","4","6","12","17","8","21","18","6","4","16","6","6","23","15","26","24","3","0","4","4","2","5","5","4","3"
"389","24","2","2","16","10","0.0833333333333333","0.666666666666667","11.6666666666667","6.29166666666667","5.375","1246.00954832205","36141.1666666667","18.53125","7.99376972331304","1.08701906483084","0.28232985128664","0.481543412343077","4.22895471375782","2.23566285602215","2.31840462387393","1536.54287144746","12492.8613169305","9.10097716325489","4.03828953596989","0.455743595070547","NaN","0","64","1000.21599453178","1884309","247.25","6.30488611432322","NaN",NA,"0","5.65685424949238","159.468770597872","354011.595787483","3.18198051533946","2.39725304689106",NA,"2","8","23","21","31","18","10","12","4","14","2","6","18","0","3","4","8","15","9","15","15","10","3","19","2","6","19","17","23","43","2","6","3","1","2","4","3","3","5"
"390","24","2","24","21","5","1","0.875","13.2916666666667","7.5","5.79166666666667","474.826264751724","34197.9583333333","21.5","9.57080874912733","1.01960784313726","0","0.337831962346088","2.82040957042192","1.44463023702923","1.64129235046964","249.812277109271","6774.11799154737","5.38112643775729","3.30983959484617","0.0960584212856153","NaN","0","58","1338.88174367579","1876825","234.25","4.33155948031231","NaN",NA,"0","15.556349186104","826.217540404062","342648.389813815","46.6690475583121","0.59176425798877",NA,"4","8","15","15","15","9","14","16","3","16","3","6","18","2","3","6","13","22","10","15","13","6","3","12","0","8","19","14","29","29","3","3","3","2","3","3","3","3","3"
"391","24","2","3","15","11","0.125","0.625","11.875","6.04166666666667","5.83333333333333","1072.31813504782","36872.5416666667","17.8229166666667","8.14461017102027","0.896839980271827","0.337831962346088","0.49453535504684","4.16311442782089","2.15646987431788","2.77671477244895","497.644743756101","11971.9374625365","7.79648721299015","3.02816707289004","0.435269784248317","NaN","0","68.5","1254.09765625","1914161.5","200.25","4.59252693054749","NaN",NA,"0","10.6066017177982","119.88222076976","358778.202599461","42.0728534805996","1.75139738049138",NA,"2","11","24","17","14","7","8","13","4","21","4","2","19","2","4","4","9","27","9","14","13","6","2","16","0","6","19","19","25","34","2","2","2","1","4","3","1","4","3"
"392","24","2","1","14","12","0.0416666666666667","0.583333333333333","12.375","6.5","5.875","1190.95515757391","40260.5","21.3020833333333","9.03398047770943","1.12921661318744","0.204124145231932","0.503610155185335","3.32071888497709","1.38312814961625","2.19312165843476","419.20222625563","8242.95546934261","6.56074424408023","3.41817534264647","0.523815785373","NaN","0","61.5","1296.73217247098","1971004","231.375","9.112122598384","NaN",NA,"0","4.94974746830583","329.576255676324","355604.000258715","40.4818632229298","11.1187204076747",NA,"2","4","6","20","28","9","6","5","1","22","3","4","31","2","7","2","15","23","6","20","14","4","1","14","2","2","17","23","32","34","1","3","1","1","3","1","2","7","2"
"393","24","2","4","17","9","0.166666666666667","0.708333333333333","12","6.41666666666667","5.58333333333333","1030.08452219077","37351.7083333333","19.5","9.78591002905257","0.981474909451803","0.380693493813441","0.464305621487537","2.9781815286163","1.47196014438797","1.83958092265997","268.167798837047","8893.07469927494","6.74738274540903","4.4172987893888","0.40128337489623","NaN","0","73.5","1013.04195804196","1938656.5","218.5","12.1269328356349","NaN",NA,"0","7.77817459305202","13.2520711439166","375273.589590981","5.30330085889911","0",NA,"4","10","19","17","18","15","8","12","2","8","1","2","18","0","3","8","11","20","14","26","20","12","3","29","0","8","25","16","32","31","4","5","3","2","1","2","1","3","6"
"395","24","2","0","14","12","0","0.583333333333333","13.8333333333333","7.04166666666667","6.79166666666667","719.335749354132","37764","20.8854166666667","7.78884547149758","1.21198168468845","0","0.503610155185335","3.94160270499932","1.96666052565978","2.48437143947425","313.061918736055","10612.1819950306","6.81708976487173","3.8867152181846","0.809393287888964","NaN","0","67","1007.84077841663","1929371.5","227.875","8.13123679312109","NaN",NA,"0","1.4142135623731","132.544523474287","354165.037959","16.086679271994","3.85077608130979",NA,"2","9","21","16","9","4","11","15","4","26","5","4","24","2","4","4","14","25","15","16","9","8","2","18","0","4","23","25","31","25","2","1","2","1","5","4","2","4","4"
"396","24","2","8","13","13","0.333333333333333","0.541666666666667","13.6666666666667","7.54166666666667","6.125","888.043716873404","40758.9583333333","22.8125","8.14791007971874","1.12018298256737","0.481543412343077","0.508977377704051","2.71335932758264","1.58742796253307","1.7769661492702","359.247925698022","7827.58749818018","6.85615004782282","3.49255401743185","0.31415130414232","NaN","0","72","862.38115942029","2014322.5","238.5","4.41227766016838","NaN",NA,"0","8.48528137423857","128.666789572603","350625.26141238","8.48528137423857","2.70436900203321",NA,"8","10","20","16","19","11","25","20","3","16","3","8","19","4","3","4","11","27","6","10","17","6","5","15","0","4","21","21","21","40","2","3","4","4","3","3","4","3","3"
"397","24","2","3","22","4","0.125","0.916666666666667","11.25","6.29166666666667","4.95833333333333","735.430620883746","31455.25","18.4895833333333","8.2926509909062","0.936426817795641","0.337831962346088","0.28232985128664","3.57831633957745","1.70623324433032","2.07425558499527","246.630420583626","9896.64027422394","7.14655555779004","3.74385902415128","0.428039976968987","NaN","0","72","975.588174882628","1787434.5","231.25","5.9038820320221","NaN",NA,"0","1.4142135623731","111.169925543711","341657.733213372","7.42462120245875","6.22802969677684",NA,"6","11","14","7","14","10","22","20","3","5","1","8","19","2","4","4","16","31","12","19","19","12","2","23","2","2","26","21","25","32","2","3","2","3","1","3","4","4","6"
"398","24","2","5","14","12","0.208333333333333","0.583333333333333","13.7916666666667","7.45833333333333","6.33333333333333","668.005700855517","39984.4166666667","23.1145833333333","6.81787379622976","1.25484165220034","0.414851116999053","0.503610155185335","2.90395781899337","1.44400309124885","1.97080135249966","217.052930086371","7575.6201291102","6.467300343411","3.0303596110923","0.506527774435909","NaN","0","66","759.732820586544","1991628.5","252.125","6.41966716353861","NaN",NA,"0","2.82842712474619","117.336319323377","358648.094951723","4.7729707730092","4.83613968147823",NA,"4","12","23","10","19","12","16","14","4","7","1","6","21","4","5","8","4","14","11","17","24","12","6","27","2","8","19","15","16","38","4","4","6","2","1","4","3","5","6"
"399","24","2","7","17","9","0.291666666666667","0.708333333333333","12.75","6.625","6.125","855.200557588517","36445.0416666667","19.4375","7.60245155648503","1.13308028076259","0.464305621487537","0.464305621487537","3.92594491533705","1.76468989762581","2.59284131542147","412.452959575817","9843.14304910504","6.7261050490187","3.76043780956629","0.781844446897821","NaN","0","68","846.583333333333","1991412","246.75","12.1661147660808","NaN",NA,"0","4.24264068711928","183.022805197118","343120.737143647","9.19238815542512","0.588475145695175",NA,"6","14","20","11","15","10","18","25","4","12","3","6","19","2","3","6","10","18","4","17","14","12","2","28","6","6","22","14","18","32","3","3","2","3","3","4","3","3","6"
"400","24","2","4","10","16","0.166666666666667","0.416666666666667","12.4166666666667","6.33333333333333","6.08333333333333","1214.21880445943","41329","20","7.07796755038693","1.13741835570271","0.380693493813441","0.503610155185335","2.33901998553959","1.37260991217989","2.39413534662747","520.597430975035","7890.67937230513","5.37759037682023","3.66628000387119","0.508283875780282","NaN","0","63","1758.57172619048","2039503","172.5","5.00904957092121","NaN",NA,"0","0","87.7447962980592","356171.099897226","10.6066017177982","0.564663432593264",NA,"2","11","17","15","24","13","8","14","2","12","2","2","18","2","3","6","10","17","6","16","7","6","1","12","2","6","20","20","19","29","3","4","1","1","2","2","1","3","3"
"401","24","2","4","14","12","0.166666666666667","0.583333333333333","13.0833333333333","6.95833333333333","6.125","894.376536542161","38763","20.5729166666667","8.64807247116516","1.03114771614338","0.380693493813441","0.503610155185335","3.32208246195936","1.51741102931409","2.36482373642262","366.236409038367","9656.9136306361","6.35348208476653","3.51779773501775","0.381034525528749","NaN","0","69","1131.08573672988","1990328","212.25","6.25","NaN",NA,"0","1.4142135623731","111.876021027714","362305.958330801","4.59619407771256","2.47487373415292",NA,"6","15","25","11","15","6","17","19","5","19","4","4","18","0","3","0","10","32","7","17","14","6","4","12","0","0","28","18","22","38","0","2","4","3","4","5","2","3","3"
"402","24","2","4","19","7","0.166666666666667","0.791666666666667","11.2916666666667","5.66666666666667","5.625","980.308734436859","33799.75","15.8645833333333","8.22482784696301","0.869144948100093","0.380693493813441","0.414851116999053","3.92848202420385","1.63299316185545","2.97544297030967","388.008284365096","10941.6897083546","6.0684407990755","3.39046274453426","0.306665960131787","NaN","0","84.5","1010.25278696268","1892394.5","201.125","7.51823356613645","NaN",NA,"0","6.36396103067893","154.770109368197","363651.582535399","39.7747564417433","2.34836711142836",NA,"6","13","10","13","18","12","25","23","1","9","2","8","12","2","2","2","18","31","5","25","14","12","1","27","0","2","26","22","28","31","1","4","1","3","2","1","4","2","6"
"403","24","2","1","16","10","0.0416666666666667","0.666666666666667","13.5833333333333","6.79166666666667","6.79166666666667","640.844153949944","37163.3333333333","20.625","8.07523383256325","1.14326381235382","0.204124145231932","0.481543412343077","3.42518379915166","1.47380509202383","2.65361388801511","258.419403743493","9783.69913890343","6.91642657170154","3.12493036573701","0.517530890168778","NaN","0","77","837.244709538827","1960575.5","235.5","5.85768725692999","NaN",NA,"0","4.24264068711928","90.0053627579265","354330.500945798","34.2946788875476","0",NA,"6","11","11","22","16","9","14","17","2","20","4","4","24","2","5","6","21","28","16","19","15","4","0","14","0","8","27","26","31","36","3","3","0","3","4","2","2","5","2"
"406","24","2","0","0","26","0","0","15.8333333333333","8.58333333333333","7.25","478.670515439082","46700.9583333333","30.5208333333333","8.85323345999465","1.48526013893811","0","0","1.52277397525376","1.17645993175054","0.737209780774486","82.9806382046783","1459.16073195062","3.76620893076113","4.01294738948575","0.499290990688745","NaN","0","78.5","747.172463175123","2282501","232.25","8.31038506929733","NaN",NA,"0","7.77817459305202","211.115833571272","363993.115110712","5.65685424949238","0",NA,"20","16","30","12","8","0","39","43","4","25","6","4","21","0","4","0","13","20","12","9","6","2","1","4","0","0","25","19","21","23","0","0","1","10","6","4","2","4","1"
"407","24","2","1","14","12","0.0416666666666667","0.583333333333333","14.625","7.70833333333333","6.91666666666667","620.494631223216","40601.2916666667","24.3541666666667","8.30876867756641","1.49062317457706","0.204124145231932","0.503610155185335","2.26144432493542","1.16017864691332","1.69183889321049","151.853282610935","6973.17944748908","5.02218808771693","3.45479951916037","0.801427802344515","NaN","0","68.5","980.364785214786","2024626.5","255","7.4068542494924","NaN",NA,"0","0.707106781186548","148.602834428697","356607.384781218","20.5060966544099","5.52512626584711",NA,"4","6","21","31","24","11","17","16","5","18","2","6","13","4","3","0","15","26","7","14","20","6","2","12","2","0","19","20","34","42","0","3","2","2","2","5","3","3","3"
"408","24","2","2","19","7","0.0833333333333333","0.791666666666667","11.9166666666667","6.33333333333333","5.58333333333333","847.805579200892","34391.9583333333","18.0729166666667","9.33219561011078","0.944668159452063","0.28232985128664","0.414851116999053","4.16941938056302","1.83366268451417","2.58619523568919","372.235091157083","10686.6592757723","6.98386306402849","3.47603911439879","0.449644244028486","NaN","0","64","1244.75706179067","1866011.5","216.75","6.16311896062463","NaN",NA,"0","7.07106781186548","96.8346623563007","354306.459315237","17.3241161390704","2.3520053899552",NA,"4","7","9","6","16","13","13","12","2","12","3","4","20","4","4","2","11","31","10","25","24","4","4","10","2","2","28","19","17","38","1","4","4","2","3","2","2","4","2"
"409","24","2","2","13","13","0.0833333333333333","0.541666666666667","12.4583333333333","6.58333333333333","5.875","842.424623300175","37345.3333333333","20.3645833333333","8.48885737511093","1.10812672450378","0.28232985128664","0.508977377704051","4.1176097611269","1.90916933147164","2.64266828265939","280.926511514244","11673.7995367056","8.47117207596326","3.60995430032855","0.60474717496682","NaN","0","70","785.112485060219","1935086.5","256.25","6.40031054702616","NaN",NA,"0","1.4142135623731","126.422722328929","351014.170142033","10.6066017177982","2.33389155773175",NA,"6","12","15","16","23","13","20","20","2","3","0","6","17","4","2","8","18","15","11","21","19","8","5","23","0","10","22","21","26","29","4","4","5","3","0","2","3","2","4"
"410","24","2","6","18","8","0.25","0.75","13.2083333333333","7.125","6.08333333333333","615.557858532399","36583.5","21.6354166666667","7.5093979234156","1.08679397130349","0.442325868464691","0.442325868464691","3.12046772785422","1.7523276445668","1.86306588524229","258.927311305721","9506.50726790774","7.58215122575018","2.91958996426637","0.504514447717204","NaN","0","69","876.021058262815","1912084","244","3.5","NaN",NA,"0","1.4142135623731","79.3301454018614","356524.65328782","8.83883476483184","3.18198051533946",NA,"8","8","14","8","9","4","24","21","2","17","3","10","12","2","3","6","17","27","6","25","15","14","2","24","2","6","25","15","26","28","3","1","2","4","3","2","5","3","7"
"411","24","2","4","14","12","0.166666666666667","0.583333333333333","12.625","6.16666666666667","6.45833333333333","1154.29342734811","40207.7083333333","18.9166666666667","7.50150621113879","0.930210595184893","0.380693493813441","0.503610155185335","3.28120470983236","1.40392823632607","2.87385768106469","680.838904491172","8098.73177661125","4.97857729517761","3.72028931519828","0.264266627968021","NaN","0","69.5","724.901276276276","2089479","260.125","5.82237042769344","NaN",NA,"0","3.53553390593274","50.2656304731309","353386.513392914","17.1473394437738","0.512352618263849",NA,"6","12","10","11","12","10","18","20","0","8","2","6","17","2","5","10","23","24","12","27","21","8","4","23","2","10","26","25","35","25","5","3","4","3","2","0","3","4","4"
"412","24","2","3","15","11","0.125","0.625","10.9583333333333","5.95833333333333","5","909.534097396269","32225.375","17.1979166666667","6.50645178993794","1.00237746663561","0.337831962346088","0.49453535504684","4.46706952541905","1.8528278426483","3.00723764622445","772.946577817749","12782.7004829132","7.69245083304668","3.6410912275277","0.720182083032342","NaN","0","71","1056.43023378822","1797488.5","230.875","10.5628566685587","NaN",NA,"0","0","61.2556588504882","352100.286157935","10.7833784130948","1.81373040967211",NA,"8","7","13","11","18","10","22","21","1","11","1","8","20","2","3","5","17","37","6","15","19","2","4","9","2","5","30","22","23","34","3","3","4","4","1","1","4","3","1"
"413","24","2","0","18","8","0","0.75","11.5416666666667","6.625","4.91666666666667","1255.84027220397","35855.4583333333","19.4583333333333","8.42253035080467","1.14475203835704","0","0.442325868464691","4.4033501738589","2.35561309290772","2.22469668995997","670.770488634738","11070.5484722506","8.99416074663067","3.4630884667389","1.06232008863677","NaN","0","60","1357.78958730159","1918607.5","221.625","6.55599816060172","NaN",NA,"0","2.82842712474619","35.6189664256246","360110.391775217","12.9046987566545","0.987560750725573",NA,"6","8","10","13","17","9","23","20","2","7","1","8","19","0","4","8","14","23","8","13","9","8","1","15","0","7","22","20","17","29","4","3","1","3","1","2","4","4","4"
"414","24","2","4","19","7","0.166666666666667","0.791666666666667","11.6666666666667","5.95833333333333","5.70833333333333","1078.61819314944","35511.3333333333","16.6875","6.64820959147158","0.957629566636228","0.380693493813441","0.414851116999053","2.69728795623318","1.30147630777903","2.27422546139897","414.843089773124","7722.65824737811","5.18266865117056","3.35073918819977","0.435355871988481","NaN","0","66","1107.81497267759","1886077","235.25","10.6474704439117","NaN",NA,"0","11.3137084989848","562.133353245359","364654.967057903","18.7383297014435","0.942202893253472",NA,"4","17","20","11","11","4","12","18","4","5","1","2","21","2","5","4","15","26","18","22","19","6","2","19","0","6","29","22","23","27","2","1","2","2","1","4","1","5","3"
"415","24","2","1","19","7","0.0416666666666667","0.791666666666667","12.3333333333333","5.91666666666667","6.41666666666667","1138.67685670811","39109.4583333333","17.5833333333333","7.1755827319118","0.927541399343455","0.204124145231932","0.414851116999053","1.63299316185545","1.10006587418037","1.55805527240983","518.609083347104","6806.21082081057","4.62252675743347","3.59355884507716","0.380746293816067","NaN","0","81","1468.208","1986079.5","152.5","8.91335496909108","NaN",NA,"0","4.24264068711928","266.166306147115","356488.590841979","30.4055915910215","4.10538748353422",NA,"2","5","20","12","20","7","14","18","3","10","2","4","16","2","2","0","12","23","4","28","23","8","3","17","2","0","22","24","29","28","0","2","3","1","2","3","2","2","4"
"416","24","2","3","16","10","0.125","0.666666666666667","11.1666666666667","5.875","5.29166666666667","778.425941929802","32961.0833333333","17.8958333333333","6.66042173931244","1.04586250132528","0.337831962346088","0.481543412343077","4.39037154678742","2.21285768418007","2.56191447888126","402.967744282777","14319.0919857755","8.9960488508865","3.52371329650895","0.711383244429366","NaN","0","69.5","1235.40974122207","1914235.5","199.875","4.85142353760524","NaN",NA,"0","9.19238815542512","160.1256284131","350082.203404429","31.2894750675047","1.27077901994791",NA,"8","11","12","11","13","7","21","18","2","10","2","6","16","2","3","6","12","37","12","17","8","6","1","18","0","8","31","20","25","32","3","2","1","4","2","2","3","3","3"
"417","24","2","3","17","9","0.125","0.708333333333333","12.5833333333333","6.29166666666667","6.29166666666667","627.319453542315","35568.875","19.625","7.17919893380172","1.25191244819521","0.337831962346088","0.464305621487537","3.51291612626105","1.80528611887825","2.11576210273327","106.386092747846","9988.87148742996","6.89478378763692","4.11330536743977","0.91912837508991","NaN","0","76.5","765.362528344671","1874404.5","246.5","10.59038520257","NaN",NA,"0","3.53553390593274","40.7744867775022","353409.847916693","12.3743686707646","0.901378123970579",NA,"4","3","0","12","28","7","19","16","0","18","3","4","32","2","6","8","24","17","5","17","18","12","3","21","2","12","17","30","28","22","4","2","3","2","3","0","2","6","6"
"418","24","2","3","20","6","0.125","0.833333333333333","11.9583333333333","6.45833333333333","5.5","960.396563795001","35730.5416666667","20.1666666666667","7.64877040046635","1.10677619131673","0.337831962346088","0.380693493813441","2.91143422995649","1.50301629100103","1.9560385876873","1057.06482957846","7385.88065444241","6.23134898275867","4.20163773795304","0.696738927954722","NaN","0","64.5","909.730038853813","1936279","256.75","3.40036762718386","NaN",NA,"0","4.94974746830583","89.3211859920473","353905.529770305","14.4956890143242","4.80884601541783",NA,"8","12","18","8","16","14","28","25","3","8","2","12","8","4","2","4","14","17","4","20","16","10","4","22","4","6","20","14","20","26","2","4","4","4","2","3","6","2","5"
"419","24","2","2","19","7","0.0833333333333333","0.791666666666667","12.3333333333333","6.16666666666667","6.16666666666667","760.09251998002","35094.3333333333","18.2395833333333","7.32894561038846","0.97660770809254","0.28232985128664","0.414851116999053","3.55902608401044","1.43456300471354","2.44356593787719","487.055793667906","10287.0529631507","5.96023013793104","2.6038420589184","0.391942802110889","NaN","0","65.5","908.325292103141","1893219.5","259.5","11.0330739297479","NaN",NA,"0","2.12132034355964","162.455290155553","355427.930670199","7.07106781186548","1.51411998250915",NA,"6","8","12","9","12","7","23","21","2","19","4","8","22","2","4","2","17","29","14","19","13","8","1","16","4","2","24","20","29","24","1","2","1","3","4","2","4","4","4"
"420","24","2","2","16","10","0.0833333333333333","0.666666666666667","12.3333333333333","7.25","5.08333333333333","894.489541130166","37429.5","21.6979166666667","7.85234666268411","1.02825925564738","0.28232985128664","0.481543412343077","3.60756049895538","2.11104754544525","2.10417115080596","530.617941167517","10483.8300585069","8.53253975094457","3.80781887435069","0.447500786768724","NaN","0","71","580.602688172043","1951613.5","272","8.7128041543165","NaN",NA,"0","4.24264068711928","18.8995196343596","354920.228001307","17.6776695296637","10.2004454577754",NA,"4","13","16","19","19","7","14","18","3","25","5","6","24","2","5","6","12","27","14","17","16","6","4","14","2","9","22","26","34","26","3","2","4","2","5","3","3","5","3"
"421","24","2","2","13","13","0.0833333333333333","0.541666666666667","14.1666666666667","6.5","7.66666666666667","659.805203963384","39903.875","20.8125","7.43744523291742","1.08205738882008","0.28232985128664","0.508977377704051","3.66732536902834","1.38312814961625","3.07396736520068","235.163400110928","9354.98789678068","7.12438021713193","3.17891013437879","0.566280236038412","NaN","0","76","862.89459382151","2011252.5","229.375","8.99527822267879","NaN",NA,"0","5.65685424949238","178.032537975238","350058.161773869","0.530330085889911","5.07271518944252",NA,"6","13","9","11","11","13","21","20","1","22","4","8","20","4","5","2","11","25","12","18","18","10","2","18","6","2","26","17","29","33","1","4","2","3","4","1","4","5","5"
"422","24","2","3","13","13","0.125","0.541666666666667","12.2083333333333","6.16666666666667","6.04166666666667","995.108921980797","37834.2083333333","19.8333333333333","7.18676616588765","1.03945555025329","0.337831962346088","0.508977377704051","3.8445802243482","1.9034674690672","2.29326360696159","551.693870140378","13047.181088113","8.27898947134653","4.04678836612369","0.27599329280628","NaN","0","69.5","981.141177411615","1948927","233","7","NaN",NA,"0","2.12132034355964","110.959657629257","355391.868224359","32.8804653251745","6.7175144212722",NA,"0","14","32","21","11","4","16","19","6","24","5","8","15","2","3","4","12","23","8","16","11","6","1","7","2","6","21","17","28","33","2","1","1","0","5","6","4","3","3"
"423","24","2","8","15","11","0.333333333333333","0.625","12.875","6.66666666666667","6.20833333333333","760.096034044931","36557.0416666667","19.4583333333333","9.46593442299624","0.962101956383147","0.481543412343077","0.49453535504684","3.92663701669375","1.4939491483886","2.68618311180473","283.687895260176","9474.03276457683","6.74523449598286","4.0190094604259","0.276784215428513","NaN","0","79.5","707.53192931991","1913552","239.75","7.10410196624968","NaN",NA,"0","3.53553390593274","91.1898678127445","360748.909198628","37.1231060122937","0.559884368646537",NA,"2","22","23","7","12","0","16","24","6","1","0","7","21","0","5","8","19","18","10","30","19","16","2","32","0","14","30","25","25","24","4","0","2","1","0","6","3","5","8"
"425","24","2","5","11","15","0.208333333333333","0.458333333333333","15.3333333333333","8","7.33333333333333","451.890932610776","39945.375","25.6770833333333","8.88843131534797","1.26484183848401","0.414851116999053","0.508977377704051","3.8069349381344","1.81778651829277","2.69728795623318","136.894993427563","8875.03261873981","6.74757571870892","4.23025556868097","0.364227314644733","NaN","0","72.5","776.654155868197","1960883.5","247.75","10.5118980208143","NaN",NA,"0","0.707106781186548","161.4479109271","341008.609188243","18.7383297014435","0",NA,"4","6","25","17","16","9","14","15","5","24","4","6","20","0","5","4","16","30","10","22","14","8","2","16","0","4","21","22","34","31","2","3","2","2","4","5","3","5","4"
"426","24","2","2","18","8","0.0833333333333333","0.75","13","7.20833333333333","5.79166666666667","633.276972754914","36653","21.78125","7.81017800583458","1.25497375142223","0.28232985128664","0.442325868464691","3.82213234362364","1.84105750959148","2.30272365512757","158.596066731495","10773.7446842655","6.63870096807186","4.31737827255842","0.856310583199227","NaN","0","73","866.403774464119","1934093","247.375","6.49632034355964","NaN",NA,"0","2.82842712474619","89.4226478282555","367899.172969986","15.3795724908074","3.18718433538229",NA,"4","6","14","15","18","15","9","10","1","16","2","2","15","2","3","2","12","32","4","34","30","14","4","27","2","2","22","17","39","40","1","5","4","2","2","1","1","3","7"
"427","24","2","8","20","6","0.333333333333333","0.833333333333333","10.625","5.91666666666667","4.70833333333333","955.831259773723","31853.5833333333","17.2083333333333","6.7006917401529","0.960610213194984","0.481543412343077","0.380693493813441","3.62134373330986","1.83958092265997","2.07425558499527","807.433609285558","10143.7382780523","7.28632827356447","3.65446436259948","0.44937310974389","NaN","0","66","1145.3254162865","1847214","219.75","8.89857995073057","NaN",NA,"0","5.65685424949238","149.943613941291","362082.512587946","3.88908729652601","0.074496448987679",NA,"2","8","10","12","15","3","12","13","2","7","1","4","25","0","6","6","12","26","10","21","16","14","3","31","0","8","25","21","27","23","3","1","3","1","1","2","2","5","7"
"428","24","2","1","10","16","0.0416666666666667","0.416666666666667","13.5833333333333","7.08333333333333","6.5","808.084304818956","39107.7083333333","22.6354166666667","9.8096637469596","1.28307472605245","0.204124145231932","0.503610155185335","3.86642927807025","1.71734544059104","2.60434419684729","670.489789474683","10048.4088356626","6.95129764499229","3.51969262564886","0.658683955226684","NaN","0","89","462.875932647712","1951413.5","267.75","10.0149820430708","NaN",NA,"0","9.89949493661167","61.6612370388777","352111.599866434","15.2027957955108","3.55672171443559",NA,"10","12","20","14","17","9","30","31","3","7","0","11","16","2","3","8","17","28","8","28","27","10","4","24","0","8","30","20","35","33","4","3","4","5","0","3","5","3","5"
"429","24","2","3","12","14","0.125","0.5","11.5416666666667","5.625","5.91666666666667","1372.83610243923","39077.7916666667","16.78125","6.90995311148326","0.837739525473568","0.337831962346088","0.510753918455249","3.24344377725773","1.49818731051605","2.68517130320139","599.431492447813","10484.7966619132","5.75038396638603","3.90442141753072","0.218971434382747","NaN","0","75","1294.24480328831","1965030","186.875","8.89963469226061","NaN",NA,"0","1.4142135623731","22.777806942861","355345.1991768","6.54073772597557","3.414015918039",NA,"4","10","23","21","27","22","16","15","4","19","3","4","25","6","4","0","7","14","8","13","4","4","0","10","0","0","16","20","20","30","0","7","0","2","3","4","2","4","2"
"430","24","2","1","16","10","0.0416666666666667","0.666666666666667","10.625","5.91666666666667","4.70833333333333","1631.36946999759","37091.5416666667","16.7083333333333","7.20387048958635","0.944112582369744","0.204124145231932","0.481543412343077","3.21426846096129","1.66594187138705","1.98864530395129","585.639914421998","10559.526677383","7.09012888008616","3.68900834596865","0.46257526296175","NaN","0","49","1791.6540526934","1931015","215.125","7.5318542494924","NaN",NA,"0","9.89949493661167","212.817307331528","356725.471613677","10.0762716319083","5.34834957055048",NA,"6","7","2","9","14","13","12","9","0","17","3","6","15","4","3","4","9","16","6","19","28","2","4","7","2","4","14","12","24","33","2","4","4","3","3","0","3","3","1"
"432","24","2","8","17","9","0.333333333333333","0.708333333333333","14.2916666666667","7.66666666666667","6.625","629.113070480717","38413.1666666667","23.53125","9.14367286250917","1.27585337489153","0.481543412343077","0.464305621487537","3.29002665070039","1.43456300471354","2.46386935000885","265.142484769391","7947.42845840397","5.89920430338224","3.59271859037812","0.577664050399753","NaN","0","77","738.964318211361","1975192.5","249.75","6.65603594886183","NaN",NA,"0","4.24264068711928","86.2886274729093","354401.211623916","9.19238815542512","2.96131236024131",NA,"6","12","14","17","24","13","15","19","2","15","2","6","22","2","4","6","12","31","8","22","13","10","2","21","0","8","27","20","33","37","3","4","2","3","2","2","3","4","5"
"433","24","2","3","19","7","0.125","0.791666666666667","11.625","6.45833333333333","5.16666666666667","922.229145622896","30923.5","19.5104166666667","7.17976976047947","1.21204342213444","0.337831962346088","0.414851116999053","4.16833300013327","2.06374852417016","2.27780723440362","1951.02180926983","11010.4097345076","8.04048153390712","3.74243729276331","0.810026531375251","NaN","0","72","876.799393090567","1786608.5","247.375","4.375","NaN",NA,"0","2.82842712474619","262.741535137575","358471.318256426","32.3501352392845","6.18718433538229",NA,"8","14","26","17","16","4","25","24","3","10","1","6","17","2","4","4","10","30","6","17","23","8","2","12","2","4","24","15","31","38","2","1","2","4","1","3","3","4","4"
"434","24","2","2","13","13","0.0833333333333333","0.541666666666667","12.375","6.375","6","1061.17648786399","40063.2083333333","19.4583333333333","7.93501426392596","1.10170598210851","0.28232985128664","0.508977377704051","2.61787334864871","1.37722152554873","1.64184413813037","421.82512053287","9008.93819916916","4.73462423711393","4.02291354050658","0.743030208062779","NaN","0","62.5","1360.70511165612","1985955.5","219.5","7.08938993767145","NaN",NA,"0","6.36396103067893","28.1222582699697","343757.840353497","19.0918830920368","2.95484358694085",NA,"8","10","18","14","8","9","17","19","5","16","2","4","5","2","0","0","16","31","9","14","23","4","2","15","0","0","25","15","25","39","0","3","2","4","2","5","2","0","2"
"435","24","2","2","14","12","0.0833333333333333","0.583333333333333","13.25","6.875","6.375","886.315442458549","38210.8333333333","20.3958333333333","8.24768911244239","1.01566489797234","0.28232985128664","0.503610155185335","3.77923387681315","2.21285768418007","2.81011372197546","396.840281633135","10698.2777795903","8.2784150534448","3.21200183623847","0.410388276347325","NaN","0","67.5","828.424056064073","1937413.5","257.5","13.0301133581558","NaN",NA,"0","12.0208152801713","126.771746095845","349090.839697205","13.0814754519511","1.67549746261186",NA,"8","12","12","12","27","11","20","19","2","9","2","8","23","0","5","4","12","19","6","22","17","8","4","24","2","4","19","20","23","32","2","4","4","4","2","2","4","5","4"
"436","24","2","4","21","5","0.166666666666667","0.875","12.5","6.58333333333333","5.91666666666667","471.520422061599","31933.5416666667","19.5","9.07522128622236","1.08539062588067","0.380693493813441","0.337831962346088","4.66252404120157","2.12473357238577","2.90302191377951","164.371977147281","12034.8831680143","7.99184366822771","4.22270573955649","0.509157450392384","NaN","0","76","544.714686435584","1785557.5","271.5","10.2387666517736","NaN",NA,"0","1.4142135623731","135.25560045345","352241.707514173","13.4350288425444","5.04582152885503",NA,"10","14","14","9","18","13","25","24","3","19","5","10","13","2","3","6","13","34","11","18","23","6","4","13","2","6","28","21","29","35","3","4","4","5","4","3","5","3","3"
"437","24","2","24","24","2","1","1","12.7083333333333","7.54166666666667","5.16666666666667","287.123759920635","30706.7083333333","21.5416666666667","8.95868580869047","1.02543168168168","0","0","2.74224862771994","1.58742796253307","1.40392823632607","85.4326548901924","5891.50025537282","5.31899113241098","3.57714220371045","0.102607825415312","NaN","0","75","397.608937833297","1742890","296.125","11.2173484498395","NaN",NA,"0","7.07106781186548","2.13312353586743","343911.282525014","9.01561146012848","1.28634657451459",NA,"6","14","25","10","18","7","13","18","5","17","4","2","24","2","4","6","20","29","15","25","21","10","5","25","0","8","25","28","37","33","3","2","5","3","4","5","1","4","5"
