"X.5","dates","times","X.4","dates.1","times.1","X.1","X.3","X.2","X","Subject","eprocs","Task_type","Procedure","Sample","startPosition","startFacing","paths","e_paths","Vid_paths","select_made","StartAt","EndAt","end_location","end_rotation","accuracy","nodesturns_count","nodes_count","turns_count","average_RT","final_movevid_OT","trial_starttime","trial_endtime","trial_duration","Position1..Num.","Position2..Num.","Euc.Distance","Euclid.S.L","Euclid.S.M.L","Path.Distance","Path.S.L","Path.S.M.L","Num.Nodes","Nodes.S.L","Nodes.S.M.L","Num.Nodes...Turns..button.presses.","Press.S.L","Press.S.M.L","fmv_duration","path_dist_trav","euc_dist_trav","path_efficiencies","path_efficiencies.1","path_efficiencies.2"
1,2018-03-15,"12:59:21",1,"2018-03-15","12:59:21",1,1,1,1,301,"MazeLearning-301-1",1,"ExploreProc",1,NA,NA,"B H H G G L L G A A G G H H Q Q R R J J K J J D D E E M M O M M S S R Q Q H H G G L L G A A G G H H B B C C C D D J R U U W U T T Q Q R R U U T T Q H H G G A A G L L G G H H B B C C I C C D D J J K J J D D E E M M O M M E E F F F E E M S S R R U U W U T X","H3 H4 G4 G3 L2 L1 G1 A4 A3 G3 G2 H2 H3 Q3 Q2 R2 R1 J1 J2 K2 J4 J1 D1 D2 E2 E3 M3 M4 O2 M2 M3 S3 S4 R4 Q4 Q1 H1 H4 G4 G3 L2 L1 G1 A4 A3 G3 G2 H2 H1 B1 B2 C2 C3 C2 D2 D3 J3 R3 U3 U2 W4 U4 T4 T1 Q1 Q2 R2 R3 U3 U4 T4 T1 Q1 H1 H4 G4 G1 A4 A3 G3 L2 L1 G1 G2 H2 H1 B1 B2 C2 C3 I2 C1 C2 D2 D3 J3 J2 K2 J4 J1 D1 D2 E2 E3 M3 M4 O2 M2 M1 E1 E2 F2 F3 F4 E4 E3 M3 S3 S4 R4 R3 U3 U2 W4 U4 T4 X4","B3_H3 H3_H4 H4_G4 G4_G3 G3_L2 L2_L1 L1_G1 G1_A4 A4_A3 A3_G3 G3_G2 G2_H2 H2_H3 H3_Q3 Q3_Q2 Q2_R2 R2_R1 R1_J1 J1_J2 J2_K2 K2_J4 J4_J1 J1_D1 D1_D2 D2_E2 E2_E3 E3_M3 M3_M4 M4_O2 O2_M2 M2_M3 M3_S3 S3_S4 S4_R4 R4_Q4 Q4_Q1 Q1_H1 H1_H4 H4_G4 G4_G3 G3_L2 L2_L1 L1_G1 G1_A4 A4_A3 A3_G3 G3_G2 G2_H2 H2_H1 H1_B1 B1_B2 B2_C2 C2_C3 C3_C2 C2_D2 D2_D3 D3_J3 J3_R3 R3_U3 U3_U2 U2_W4 W4_U4 U4_T4 T4_T1 T1_Q1 Q1_Q2 Q2_R2 R2_R3 R3_U3 U3_U4 U4_T4 T4_T1 T1_Q1 Q1_H1 H1_H4 H4_G4 G4_G1 G1_A4 A4_A3 A3_G3 G3_L2 L2_L1 L1_G1 G1_G2 G2_H2 H2_H1 H1_B1 B1_B2 B2_C2 C2_C3 C3_I2 I2_C1 C1_C2 C2_D2 D2_D3 D3_J3 J3_J2 J2_K2 K2_J4 J4_J1 J1_D1 D1_D2 D2_E2 E2_E3 E3_M3 M3_M4 M4_O2 O2_M2 M2_M1 M1_E1 E1_E2 E2_F2 F2_F3 F3_F4 F4_E4 E4_E3 E3_M3 M3_S3 S3_S4 S4_R4 R4_R3 R3_U3 U3_U2 U2_W4 W4_U4 U4_T4 T4_X4",FALSE,NA,NA,"X","W",NA,128,72,56,1184.8188976378,495675,14370,2118119,2103749,NA,NA,NA,NA,NA,NA,NA,NA,NA,NA,NA,NA,NA,NA,1622444,250.5,11.8163022980965,NA,NA,NA
2,2018-03-15,"12:59:21",2,"2018-03-15","12:59:21",2,2,2,2,301,"MazeLearning-301-1",2,"ExploreProc",128,NA,NA,"X Z P P Z Z Z X X V V X X T U W U T T Q H B B C D E F F F E D D J R U U T X Z P P Z X X V V X Z Z X T T Q H B B C D E F F F E E M S S R Q Q H B B C C I C C C I C C D D J R U U T X Z P P Z X T T Q H B B C D D J R R R R R R S S M M O M M M M E E D C C I C C C C B B H","Z1 P2 P3 Z2 Z1 Z2 X2 X3 V2 V1 X1 X2 T2 U2 W4 U4 T4 T1 Q1 H1 B1 B2 C2 D2 E2 F2 F3 F4 E4 D4 D3 J3 R3 U3 U4 T4 X4 Z1 P2 P3 Z2 X2 X3 V2 V1 X1 Z1 Z2 X2 T2 T1 Q1 H1 B1 B2 C2 D2 E2 F2 F3 F4 E4 E3 M3 S3 S4 R4 Q4 Q1 H1 B1 B2 C2 C3 I2 C1 C4 C3 I2 C1 C2 D2 D3 J3 R3 U3 U4 T4 X4 Z1 P2 P3 Z2 X2 T2 T1 Q1 H1 B1 B2 C2 D2 D3 J3 R3 R2 R3 R4 R1 R2 S2 S1 M1 M4 O2 M2 M3 M4 M1 E1 E4 D4 C4 C3 I2 C1 C4 C3 C4 B4 B3 H3","X4_Z1 Z1_P2 P2_P3 P3_Z2 Z2_Z1 Z1_Z2 Z2_X2 X2_X3 X3_V2 V2_V1 V1_X1 X1_X2 X2_T2 T2_U2 U2_W4 W4_U4 U4_T4 T4_T1 T1_Q1 Q1_H1 H1_B1 B1_B2 B2_C2 C2_D2 D2_E2 E2_F2 F2_F3 F3_F4 F4_E4 E4_D4 D4_D3 D3_J3 J3_R3 R3_U3 U3_U4 U4_T4 T4_X4 X4_Z1 Z1_P2 P2_P3 P3_Z2 Z2_X2 X2_X3 X3_V2 V2_V1 V1_X1 X1_Z1 Z1_Z2 Z2_X2 X2_T2 T2_T1 T1_Q1 Q1_H1 H1_B1 B1_B2 B2_C2 C2_D2 D2_E2 E2_F2 F2_F3 F3_F4 F4_E4 E4_E3 E3_M3 M3_S3 S3_S4 S4_R4 R4_Q4 Q4_Q1 Q1_H1 H1_B1 B1_B2 B2_C2 C2_C3 C3_I2 I2_C1 C1_C4 C4_C3 C3_I2 I2_C1 C1_C2 C2_D2 D2_D3 D3_J3 J3_R3 R3_U3 U3_U4 U4_T4 T4_X4 X4_Z1 Z1_P2 P2_P3 P3_Z2 Z2_X2 X2_T2 T2_T1 T1_Q1 Q1_H1 H1_B1 B1_B2 B2_C2 C2_D2 D2_D3 D3_J3 J3_R3 R3_R2 R2_R3 R3_R4 R4_R1 R1_R2 R2_S2 S2_S1 S1_M1 M1_M4 M4_O2 O2_M2 M2_M3 M3_M4 M4_M1 M1_E1 E1_E4 E4_D4 D4_C4 C4_C3 C3_I2 I2_C1 C1_C4 C4_C3 C3_C4 C4_B4 B4_B3 B3_H3",FALSE,NA,NA,"H","S",NA,133,82,51,1269.57575757576,1006672,526901,2118119,1591218,NA,NA,NA,NA,NA,NA,NA,NA,NA,NA,NA,NA,NA,NA,1111447,250.75,9.5818839483684,NA,NA,NA
3,2018-03-14,"09:20:12",3,"2018-03-14","09:20:12",3,3,3,3,306,"MazeLearning-306-1",1,"ExploreProc",1,NA,NA,"E D C C I C C D E F F N N F F E D C C I C C D E F F N N F F E D D D D J J K J J D D D D C C C B B H H H H G G A A A A G L L G A A G L L G G H H H H B B B H Q T T X X X X V V X X T T Q Q R R R R U U T T Q","D4 C4 C3 I2 C1 C2 D2 E2 F2 F3 N3 N1 F1 F4 E4 D4 C4 C3 I2 C1 C2 D2 E2 F2 F3 N3 N1 F1 F4 E4 D4 D3 D2 D3 J3 J2 K2 J4 J1 D1 D4 D3 D4 C4 C3 C4 B4 B3 H3 H4 H1 H4 G4 G1 A4 A3 A4 A3 G3 L2 L1 G1 A4 A3 G3 L2 L1 G1 G2 H2 H1 H4 H1 B1 B2 B3 H3 Q3 T3 T4 X4 X3 X2 X3 V2 V1 X1 X2 T2 T1 Q1 Q2 R2 R1 R2 R3 U3 U4 T4 T1 Q1","E4_D4 D4_C4 C4_C3 C3_I2 I2_C1 C1_C2 C2_D2 D2_E2 E2_F2 F2_F3 F3_N3 N3_N1 N1_F1 F1_F4 F4_E4 E4_D4 D4_C4 C4_C3 C3_I2 I2_C1 C1_C2 C2_D2 D2_E2 E2_F2 F2_F3 F3_N3 N3_N1 N1_F1 F1_F4 F4_E4 E4_D4 D4_D3 D3_D2 D2_D3 D3_J3 J3_J2 J2_K2 K2_J4 J4_J1 J1_D1 D1_D4 D4_D3 D3_D4 D4_C4 C4_C3 C3_C4 C4_B4 B4_B3 B3_H3 H3_H4 H4_H1 H1_H4 H4_G4 G4_G1 G1_A4 A4_A3 A3_A4 A4_A3 A3_G3 G3_L2 L2_L1 L1_G1 G1_A4 A4_A3 A3_G3 G3_L2 L2_L1 L1_G1 G1_G2 G2_H2 H2_H1 H1_H4 H4_H1 H1_B1 B1_B2 B2_B3 B3_H3 H3_Q3 Q3_T3 T3_T4 T4_X4 X4_X3 X3_X2 X2_X3 X3_V2 V2_V1 V1_X1 X1_X2 X2_T2 T2_T1 T1_Q1 Q1_Q2 Q2_R2 R2_R1 R1_R2 R2_R3 R3_U3 U3_U4 U4_T4 T4_T1 T1_Q1",FALSE,NA,NA,"Q","N",NA,102,51,51,2391.84158415842,487811,9785,2243994,2234209,NA,NA,NA,NA,NA,NA,NA,NA,NA,NA,NA,NA,NA,NA,1756183,162,11.3137084989848,NA,NA,NA
4,2018-03-14,"09:20:12",4,"2018-03-14","09:20:12",4,4,4,4,306,"MazeLearning-306-1",2,"ExploreProc",102,NA,NA,"Q H H G G L L G G H H B B C D E E M M O M M S S R R R Q Q T T U U U W U U U T T T X X X X V V V V X Z P P Z X T U U R R S S M M O M M S S R R J D D C C I C C C C B B H Q T T X X V Y Y V X X T U U R J J K J J D D C C I C","H1 H4 G4 G3 L2 L1 G1 G2 H2 H1 B1 B2 C2 D2 E2 E3 M3 M4 O2 M2 M3 S3 S4 R4 R3 R4 Q4 Q3 T3 T2 U2 U1 U2 W4 U4 U1 U4 T4 T1 T4 X4 X3 X2 X3 V2 V1 V2 V1 X1 Z1 P2 P3 Z2 X2 T2 U2 U1 R1 R2 S2 S1 M1 M4 O2 M2 M3 S3 S4 R4 R1 J1 D1 D4 C4 C3 I2 C1 C4 C3 C4 B4 B3 H3 Q3 T3 T4 X4 X3 V2 Y3 Y4 V1 X1 X2 T2 U2 U1 R1 J1 J2 K2 J4 J1 D1 D4 C4 C3 I2 C1","Q1_H1 H1_H4 H4_G4 G4_G3 G3_L2 L2_L1 L1_G1 G1_G2 G2_H2 H2_H1 H1_B1 B1_B2 B2_C2 C2_D2 D2_E2 E2_E3 E3_M3 M3_M4 M4_O2 O2_M2 M2_M3 M3_S3 S3_S4 S4_R4 R4_R3 R3_R4 R4_Q4 Q4_Q3 Q3_T3 T3_T2 T2_U2 U2_U1 U1_U2 U2_W4 W4_U4 U4_U1 U1_U4 U4_T4 T4_T1 T1_T4 T4_X4 X4_X3 X3_X2 X2_X3 X3_V2 V2_V1 V1_V2 V2_V1 V1_X1 X1_Z1 Z1_P2 P2_P3 P3_Z2 Z2_X2 X2_T2 T2_U2 U2_U1 U1_R1 R1_R2 R2_S2 S2_S1 S1_M1 M1_M4 M4_O2 O2_M2 M2_M3 M3_S3 S3_S4 S4_R4 R4_R1 R1_J1 J1_D1 D1_D4 D4_C4 C4_C3 C3_I2 I2_C1 C1_C4 C4_C3 C3_C4 C4_B4 B4_B3 B3_H3 H3_Q3 Q3_T3 T3_T4 T4_X4 X4_X3 X3_V2 V2_Y3 Y2_Y4 Y4_V1 V1_X1 X1_X2 X2_T2 T2_U2 U2_U1 U1_R1 R1_J1 J1_J2 J2_K2 K2_J4 J4_J1 J1_D1 D1_D4 D4_C4 C4_C3 C3_I2 I2_C1",FALSE,NA,NA,"C","N",NA,110,60,50,1906.70642201835,994090,514078,2243994,1729916,NA,NA,NA,NA,NA,NA,NA,NA,NA,NA,NA,NA,NA,NA,1249904,194,8.13941029804985,NA,NA,NA
5,2018-02-20,"13:35:19",5,"2018-02-20","13:35:19",5,5,5,5,310,"MazeLearning-310-1",1,"ExploreProc",1,NA,NA,"T U U U T X X V Y Y V X X T U W U T X X V V X X T T Q Q R R J J K J J R U U T X X V V X X T T Q Q Q H B B C C I C C C C B B H Q T T X X V V X X T T Q H H G G A A G G H H Q Q Q T T U W U T T Q H H G G L L G G H H B B C D D D E E E F F N N F F E D D D C C I","U2 U1 U4 T4 X4 X3 V2 Y3 Y4 V1 X1 X2 T2 U2 W4 U4 T4 X4 X3 V2 V1 X1 X2 T2 T1 Q1 Q2 R2 R1 J1 J2 K2 J4 J3 R3 U3 U4 T4 X4 X3 V2 V1 X1 X2 T2 T1 Q1 Q2 Q1 H1 B1 B2 C2 C3 I2 C1 C4 C3 C4 B4 B3 H3 Q3 T3 T4 X4 X3 V2 V1 X1 X2 T2 T1 Q1 H1 H4 G4 G1 A4 A3 G3 G2 H2 H3 Q3 Q2 Q3 T3 T2 U2 W4 U4 T4 T1 Q1 H1 H4 G4 G3 L2 L1 G1 G2 H2 H1 B1 B2 C2 D2 D3 D2 E2 E3 E2 F2 F3 N3 N1 F1 F4 E4 D4 D3 D4 C4 C3 I2","T2_U2 U2_U1 U1_U4 U4_T4 T4_X4 X4_X3 X3_V2 V2_Y3 Y2_Y4 Y4_V1 V1_X1 X1_X2 X2_T2 T2_U2 U2_W4 W4_U4 U4_T4 T4_X4 X4_X3 X3_V2 V2_V1 V1_X1 X1_X2 X2_T2 T2_T1 T1_Q1 Q1_Q2 Q2_R2 R2_R1 R1_J1 J1_J2 J2_K2 K2_J4 J4_J3 J3_R3 R3_U3 U3_U4 U4_T4 T4_X4 X4_X3 X3_V2 V2_V1 V1_X1 X1_X2 X2_T2 T2_T1 T1_Q1 Q1_Q2 Q2_Q1 Q1_H1 H1_B1 B1_B2 B2_C2 C2_C3 C3_I2 I2_C1 C1_C4 C4_C3 C3_C4 C4_B4 B4_B3 B3_H3 H3_Q3 Q3_T3 T3_T4 T4_X4 X4_X3 X3_V2 V2_V1 V1_X1 X1_X2 X2_T2 T2_T1 T1_Q1 Q1_H1 H1_H4 H4_G4 G4_G1 G1_A4 A4_A3 A3_G3 G3_G2 G2_H2 H2_H3 H3_Q3 Q3_Q2 Q2_Q3 Q3_T3 T3_T2 T2_U2 U2_W4 W4_U4 U4_T4 T4_T1 T1_Q1 Q1_H1 H1_H4 H4_G4 G4_G3 G3_L2 L2_L1 L1_G1 G1_G2 G2_H2 H2_H1 H1_B1 B1_B2 B2_C2 C2_D2 D2_D3 D3_D2 D2_E2 E2_E3 E3_E2 E2_F2 F2_F3 F3_N3 N3_N1 N1_F1 F1_F4 F4_E4 E4_D4 D4_D3 D3_D4 D4_C4 C4_C3 C3_I2",FALSE,NA,NA,"I","E",NA,128,71,57,1187.67716535433,494661,16793,2375210,2358417,NA,NA,NA,NA,NA,NA,NA,NA,NA,NA,NA,NA,NA,NA,1880549,226.75,8.87764045228235,NA,NA,NA
6,2018-02-20,"13:35:19",6,"2018-02-20","13:35:19",6,6,6,6,310,"MazeLearning-310-1",2,"ExploreProc",128,NA,NA,"I C C D D D E E M M O M M E E E E F F F E E M M O M M E E F F F E E M S S R Q Q T T X X V V X X T T T T T U U R R R R Q Q H H G G A A G G H H Q Q Q T T T T X X V V X X T T Q H H G G L L G G H H B B C C I C C D D J J K J J R R R U U W U U R R R R R R R J J K J J R R R R R R S S M M M M","C1 C2 D2 D3 D2 E2 E3 M3 M4 O2 M2 M1 E1 E4 E3 E2 F2 F3 F4 E4 E3 M3 M4 O2 M2 M1 E1 E2 F2 F3 F4 E4 E3 M3 S3 S4 R4 Q4 Q3 T3 T4 X4 X3 V2 V1 X1 X2 T2 T1 T2 T1 T2 U2 U1 R1 R2 R1 R4 Q4 Q1 H1 H4 G4 G1 A4 A3 G3 G2 H2 H3 Q3 Q2 Q3 T3 T2 T1 T4 X4 X3 V2 V1 X1 X2 T2 T1 Q1 H1 H4 G4 G3 L2 L1 G1 G2 H2 H1 B1 B2 C2 C3 I2 C1 C2 D2 D3 J3 J2 K2 J4 J3 R3 R2 R3 U3 U2 W4 U4 U1 R1 R4 R1 R2 R1 R4 R1 J1 J2 K2 J4 J3 R3 R2 R3 R4 R3 R2 S2 S1 M1 M4 M3 M4","I2_C1 C1_C2 C2_D2 D2_D3 D3_D2 D2_E2 E2_E3 E3_M3 M3_M4 M4_O2 O2_M2 M2_M1 M1_E1 E1_E4 E4_E3 E3_E2 E2_F2 F2_F3 F3_F4 F4_E4 E4_E3 E3_M3 M3_M4 M4_O2 O2_M2 M2_M1 M1_E1 E1_E2 E2_F2 F2_F3 F3_F4 F4_E4 E4_E3 E3_M3 M3_S3 S3_S4 S4_R4 R4_Q4 Q4_Q3 Q3_T3 T3_T4 T4_X4 X4_X3 X3_V2 V2_V1 V1_X1 X1_X2 X2_T2 T2_T1 T1_T2 T2_T1 T1_T2 T2_U2 U2_U1 U1_R1 R1_R2 R2_R1 R1_R4 R4_Q4 Q4_Q1 Q1_H1 H1_H4 H4_G4 G4_G1 G1_A4 A4_A3 A3_G3 G3_G2 G2_H2 H2_H3 H3_Q3 Q3_Q2 Q2_Q3 Q3_T3 T3_T2 T2_T1 T1_T4 T4_X4 X4_X3 X3_V2 V2_V1 V1_X1 X1_X2 X2_T2 T2_T1 T1_Q1 Q1_H1 H1_H4 H4_G4 G4_G3 G3_L2 L2_L1 L1_G1 G1_G2 G2_H2 H2_H1 H1_B1 B1_B2 B2_C2 C2_C3 C3_I2 I2_C1 C1_C2 C2_D2 D2_D3 D3_J3 J3_J2 J2_K2 K2_J4 J4_J3 J3_R3 R3_R2 R2_R3 R3_U3 U3_U2 U2_W4 W4_U4 U4_U1 U1_R1 R1_R4 R4_R1 R1_R2 R2_R1 R1_R4 R4_R1 R1_J1 J1_J2 J2_K2 K2_J4 J4_J3 J3_R3 R3_R2 R2_R3 R3_R4 R4_R3 R3_R2 R2_S2 S2_S1 S1_M1 M1_M4 M4_M3 M3_M4",FALSE,NA,NA,"M","W",NA,143,63,80,942.711267605634,1002048,522368,2375210,1852842,NA,NA,NA,NA,NA,NA,NA,NA,NA,NA,NA,NA,NA,NA,1373162,215.75,6.73145600891813,NA,NA,NA
7,2018-03-06,"14:38:03",7,"2018-03-06","14:38:03",7,7,7,7,312,"MazeLearning-312-1",1,"ExploreProc",1,NA,NA,"T U U R J J K J J J J R R Q Q T T X X V V X X T U U R R Q Q T T U U U W U T T Q H H G G L L G A A G G H H H H B B C D E E M S S R R R R R S S M M O M M S S R R U U W U T T T X X V V X Z Z Z P P Z X T T T U U U T T Q Q R R R R U U T T T X X V V X Z Z Z P P Z","U2 U1 R1 J1 J2 K2 J4 J3 J2 J3 R3 R4 Q4 Q3 T3 T4 X4 X3 V2 V1 X1 X2 T2 U2 U1 R1 R4 Q4 Q3 T3 T2 U2 U1 U2 W4 U4 T4 T1 Q1 H1 H4 G4 G3 L2 L1 G1 A4 A3 G3 G2 H2 H3 H4 H1 B1 B2 C2 D2 E2 E3 M3 S3 S4 R4 R1 R4 R3 R2 S2 S1 M1 M4 O2 M2 M3 S3 S4 R4 R3 U3 U2 W4 U4 T4 T1 T4 X4 X3 V2 V1 X1 Z1 Z2 Z1 P2 P3 Z2 X2 T2 T1 T2 U2 U1 U4 T4 T1 Q1 Q2 R2 R1 R2 R3 U3 U4 T4 T1 T4 X4 X3 V2 V1 X1 Z1 Z2 Z1 P2 P3 Z2","T2_U2 U2_U1 U1_R1 R1_J1 J1_J2 J2_K2 K2_J4 J4_J3 J3_J2 J2_J3 J3_R3 R3_R4 R4_Q4 Q4_Q3 Q3_T3 T3_T4 T4_X4 X4_X3 X3_V2 V2_V1 V1_X1 X1_X2 X2_T2 T2_U2 U2_U1 U1_R1 R1_R4 R4_Q4 Q4_Q3 Q3_T3 T3_T2 T2_U2 U2_U1 U1_U2 U2_W4 W4_U4 U4_T4 T4_T1 T1_Q1 Q1_H1 H1_H4 H4_G4 G4_G3 G3_L2 L2_L1 L1_G1 G1_A4 A4_A3 A3_G3 G3_G2 G2_H2 H2_H3 H3_H4 H4_H1 H1_B1 B1_B2 B2_C2 C2_D2 D2_E2 E2_E3 E3_M3 M3_S3 S3_S4 S4_R4 R4_R1 R1_R4 R4_R3 R3_R2 R2_S2 S2_S1 S1_M1 M1_M4 M4_O2 O2_M2 M2_M3 M3_S3 S3_S4 S4_R4 R4_R3 R3_U3 U3_U2 U2_W4 W4_U4 U4_T4 T4_T1 T1_T4 T4_X4 X4_X3 X3_V2 V2_V1 V1_X1 X1_Z1 Z1_Z2 Z2_Z1 Z1_P2 P2_P3 P3_Z2 Z2_X2 X2_T2 T2_T1 T1_T2 T2_U2 U2_U1 U1_U4 U4_T4 T4_T1 T1_Q1 Q1_Q2 Q2_R2 R2_R1 R1_R2 R2_R3 R3_U3 U3_U4 U4_T4 T4_T1 T1_T4 T4_X4 X4_X3 X3_V2 V2_V1 V1_X1 X1_Z1 Z1_Z2 Z2_Z1 Z1_P2 P2_P3 P3_Z2",FALSE,NA,NA,"Z","E",NA,129,65,64,1273.921875,493318,17082,2208530,2191448,NA,NA,NA,NA,NA,NA,NA,NA,NA,NA,NA,NA,NA,NA,1715212,213.75,2.75,NA,NA,NA
8,2018-03-06,"14:38:03",8,"2018-03-06","14:38:03",8,8,8,8,312,"MazeLearning-312-1",2,"ExploreProc",129,NA,NA,"Z X X V V V Y Y V X X T U W U U U T T T X Z P P Z Z Z X X V V X X T T Q H H G G A A G L L G G H H B B C C I C C B B B C D E E M M O M M M M E E F F F E E M M O M M S S R R U U W U U U T T T X X V V X Z P P Z X X V V X Z P P Z X X V V X X T T Q Q R R R R R S S M M O M M M M E E","X2 X3 V2 V1 V2 Y3 Y4 V1 X1 X2 T2 U2 W4 U4 U1 U4 T4 T1 T4 X4 Z1 P2 P3 Z2 Z1 Z2 X2 X3 V2 V1 X1 X2 T2 T1 Q1 H1 H4 G4 G1 A4 A3 G3 L2 L1 G1 G2 H2 H1 B1 B2 C2 C3 I2 C1 C4 B4 B3 B2 C2 D2 E2 E3 M3 M4 O2 M2 M1 M4 M1 E1 E2 F2 F3 F4 E4 E3 M3 M4 O2 M2 M3 S3 S4 R4 R3 U3 U2 W4 U4 U1 U4 T4 T1 T4 X4 X3 V2 V1 X1 Z1 P2 P3 Z2 X2 X3 V2 V1 X1 Z1 P2 P3 Z2 X2 X3 V2 V1 X1 X2 T2 T1 Q1 Q2 R2 R1 R2 R3 R2 S2 S1 M1 M4 O2 M2 M1 M4 M1 E1 E4","Z2_X2 X2_X3 X3_V2 V2_V1 V1_V2 V2_Y3 Y2_Y4 Y4_V1 V1_X1 X1_X2 X2_T2 T2_U2 U2_W4 W4_U4 U4_U1 U1_U4 U4_T4 T4_T1 T1_T4 T4_X4 X4_Z1 Z1_P2 P2_P3 P3_Z2 Z2_Z1 Z1_Z2 Z2_X2 X2_X3 X3_V2 V2_V1 V1_X1 X1_X2 X2_T2 T2_T1 T1_Q1 Q1_H1 H1_H4 H4_G4 G4_G1 G1_A4 A4_A3 A3_G3 G3_L2 L2_L1 L1_G1 G1_G2 G2_H2 H2_H1 H1_B1 B1_B2 B2_C2 C2_C3 C3_I2 I2_C1 C1_C4 C4_B4 B4_B3 B3_B2 B2_C2 C2_D2 D2_E2 E2_E3 E3_M3 M3_M4 M4_O2 O2_M2 M2_M1 M1_M4 M4_M1 M1_E1 E1_E2 E2_F2 F2_F3 F3_F4 F4_E4 E4_E3 E3_M3 M3_M4 M4_O2 O2_M2 M2_M3 M3_S3 S3_S4 S4_R4 R4_R3 R3_U3 U3_U2 U2_W4 W4_U4 U4_U1 U1_U4 U4_T4 T4_T1 T1_T4 T4_X4 X4_X3 X3_V2 V2_V1 V1_X1 X1_Z1 Z1_P2 P2_P3 P3_Z2 Z2_X2 X2_X3 X3_V2 V2_V1 V1_X1 X1_Z1 Z1_P2 P2_P3 P3_Z2 Z2_X2 X2_X3 X3_V2 V2_V1 V1_X1 X1_X2 X2_T2 T2_T1 T1_Q1 Q1_Q2 Q2_R2 R2_R1 R1_R2 R2_R3 R3_R2 R2_S2 S2_S1 S1_M1 M1_M4 M4_O2 O2_M2 M2_M1 M1_M4 M4_M1 M1_E1 E1_E4",FALSE,NA,NA,"E","W",NA,139,72,67,962.666666666667,1006580,526464,2208530,1682066,NA,NA,NA,NA,NA,NA,NA,NA,NA,NA,NA,NA,NA,NA,1201950,211.5,15.925608308633,NA,NA,NA
9,2018-03-20,"13:02:41",9,"2018-03-20","13:02:41",9,9,9,9,313,"MazeLearning-313-1",1,"ExploreProc",1,NA,NA,"T U W U U R R S S M E E F F N N F F E D D J R R Q Q H B B B H H G G L L G G H H Q T T U U U W U U R R R J J K J J D D E E M M M E E F F F E D C B B H H G G L L G G H H B B B B C C I C C D D J J J J K J J J J R R R R R U U T T T X X V Y Y V X X T U W U U U U R R R J J K J J R R S S","U2 W4 U4 U1 R1 R2 S2 S1 M1 E1 E2 F2 F3 N3 N1 F1 F4 E4 D4 D3 J3 R3 R4 Q4 Q1 H1 B1 B2 B3 H3 H4 G4 G3 L2 L1 G1 G2 H2 H3 Q3 T3 T2 U2 U1 U2 W4 U4 U1 R1 R2 R1 J1 J2 K2 J4 J1 D1 D2 E2 E3 M3 M4 M1 E1 E2 F2 F3 F4 E4 D4 C4 B4 B3 H3 H4 G4 G3 L2 L1 G1 G2 H2 H1 B1 B2 B3 B2 C2 C3 I2 C1 C2 D2 D3 J3 J2 J1 J2 K2 J4 J1 J2 J3 R3 R2 R3 R4 R3 U3 U4 T4 T1 T4 X4 X3 V2 Y3 Y4 V1 X1 X2 T2 U2 W4 U4 U1 U2 U1 R1 R2 R1 J1 J2 K2 J4 J3 R3 R2 S2 S1","T2_U2 U2_W4 W4_U4 U4_U1 U1_R1 R1_R2 R2_S2 S2_S1 S1_M1 M1_E1 E1_E2 E2_F2 F2_F3 F3_N3 N3_N1 N1_F1 F1_F4 F4_E4 E4_D4 D4_D3 D3_J3 J3_R3 R3_R4 R4_Q4 Q4_Q1 Q1_H1 H1_B1 B1_B2 B2_B3 B3_H3 H3_H4 H4_G4 G4_G3 G3_L2 L2_L1 L1_G1 G1_G2 G2_H2 H2_H3 H3_Q3 Q3_T3 T3_T2 T2_U2 U2_U1 U1_U2 U2_W4 W4_U4 U4_U1 U1_R1 R1_R2 R2_R1 R1_J1 J1_J2 J2_K2 K2_J4 J4_J1 J1_D1 D1_D2 D2_E2 E2_E3 E3_M3 M3_M4 M4_M1 M1_E1 E1_E2 E2_F2 F2_F3 F3_F4 F4_E4 E4_D4 D4_C4 C4_B4 B4_B3 B3_H3 H3_H4 H4_G4 G4_G3 G3_L2 L2_L1 L1_G1 G1_G2 G2_H2 H2_H1 H1_B1 B1_B2 B2_B3 B3_B2 B2_C2 C2_C3 C3_I2 I2_C1 C1_C2 C2_D2 D2_D3 D3_J3 J3_J2 J2_J1 J1_J2 J2_K2 K2_J4 J4_J1 J1_J2 J2_J3 J3_R3 R3_R2 R2_R3 R3_R4 R4_R3 R3_U3 U3_U4 U4_T4 T4_T1 T1_T4 T4_X4 X4_X3 X3_V2 V2_Y3 Y2_Y4 Y4_V1 V1_X1 X1_X2 X2_T2 T2_U2 U2_W4 W4_U4 U4_U1 U1_U2 U2_U1 U1_R1 R1_R2 R2_R1 R1_J1 J1_J2 J2_K2 K2_J4 J4_J3 J3_R3 R3_R2 R2_S2 S2_S1",FALSE,NA,NA,"S","N",NA,141,71,70,704.428571428571,493392,12989,2198401,2185412,NA,NA,NA,NA,NA,NA,NA,NA,NA,NA,NA,NA,NA,NA,1705009,248.75,8.83529852353615,NA,NA,NA
10,2018-03-20,"13:02:41",10,"2018-03-20","13:02:41",10,10,10,10,313,"MazeLearning-313-1",2,"ExploreProc",141,NA,NA,"S M M O M M M M M M E E E E F F F F F E D D J R U U W U T T Q H H G G A A G L L G G H H B B B H Q T T X X V V X X T T Q Q R R R R J J K J J D D E E M M O M M S S S S R R J J K J J D D E E M M O M M S S R R R R U U W U T X X V V X Z P P Z X X V V X X T U W U T T T X X V V X X T T Q H H G G L L G A","M1 M4 O2 M2 M1 M4 M3 M4 M1 E1 E4 E3 E2 F2 F3 F4 F3 F4 E4 D4 D3 J3 R3 U3 U2 W4 U4 T4 T1 Q1 H1 H4 G4 G1 A4 A3 G3 L2 L1 G1 G2 H2 H1 B1 B2 B3 H3 Q3 T3 T4 X4 X3 V2 V1 X1 X2 T2 T1 Q1 Q2 R2 R3 R2 R1 J1 J2 K2 J4 J1 D1 D2 E2 E3 M3 M4 O2 M2 M3 S3 S4 S1 S4 R4 R1 J1 J2 K2 J4 J1 D1 D2 E2 E3 M3 M4 O2 M2 M3 S3 S4 R4 R1 R4 R3 U3 U2 W4 U4 T4 X4 X3 V2 V1 X1 Z1 P2 P3 Z2 X2 X3 V2 V1 X1 X2 T2 U2 W4 U4 T4 T1 T4 X4 X3 V2 V1 X1 X2 T2 T1 Q1 H1 H4 G4 G3 L2 L1 G1 A4","S1_M1 M1_M4 M4_O2 O2_M2 M2_M1 M1_M4 M4_M3 M3_M4 M4_M1 M1_E1 E1_E4 E4_E3 E3_E2 E2_F2 F2_F3 F3_F4 F4_F3 F3_F4 F4_E4 E4_D4 D4_D3 D3_J3 J3_R3 R3_U3 U3_U2 U2_W4 W4_U4 U4_T4 T4_T1 T1_Q1 Q1_H1 H1_H4 H4_G4 G4_G1 G1_A4 A4_A3 A3_G3 G3_L2 L2_L1 L1_G1 G1_G2 G2_H2 H2_H1 H1_B1 B1_B2 B2_B3 B3_H3 H3_Q3 Q3_T3 T3_T4 T4_X4 X4_X3 X3_V2 V2_V1 V1_X1 X1_X2 X2_T2 T2_T1 T1_Q1 Q1_Q2 Q2_R2 R2_R3 R3_R2 R2_R1 R1_J1 J1_J2 J2_K2 K2_J4 J4_J1 J1_D1 D1_D2 D2_E2 E2_E3 E3_M3 M3_M4 M4_O2 O2_M2 M2_M3 M3_S3 S3_S4 S4_S1 S1_S4 S4_R4 R4_R1 R1_J1 J1_J2 J2_K2 K2_J4 J4_J1 J1_D1 D1_D2 D2_E2 E2_E3 E3_M3 M3_M4 M4_O2 O2_M2 M2_M3 M3_S3 S3_S4 S4_R4 R4_R1 R1_R4 R4_R3 R3_U3 U3_U2 U2_W4 W4_U4 U4_T4 T4_X4 X4_X3 X3_V2 V2_V1 V1_X1 X1_Z1 Z1_P2 P2_P3 P3_Z2 Z2_X2 X2_X3 X3_V2 V2_V1 V1_X1 X1_X2 X2_T2 T2_U2 U2_W4 W4_U4 U4_T4 T4_T1 T1_T4 T4_X4 X4_X3 X3_V2 V2_V1 V1_X1 X1_X2 X2_T2 T2_T1 T1_Q1 Q1_H1 H1_H4 H4_G4 G4_G3 G3_L2 L2_L1 L1_G1 G1_A4",FALSE,NA,NA,"A","W",NA,149,79,70,599.844594594595,993194,514165,2198401,1684236,NA,NA,NA,NA,NA,NA,NA,NA,NA,NA,NA,NA,NA,NA,1205207,260,13.6014705087354,NA,NA,NA
11,2018-05-02,"09:37:10",11,"2018-05-02","09:37:10",11,11,11,11,315,"MazeLearning-315-1",1,"ExploreProc",1,NA,NA,"B B C D E F F F E E M S S R R U U W U T X X V V X X T T Q Q Q H H G G L L G G H H B B C D D J R R Q Q T T U U R R S S M M O M M E E D C C C B B H H G G L L G G H H Q T T X Z P P Z X T T Q Q R R U U T T T X Z P P Z X T T Q Q R S S M M O M M S S R R J J K J J D D E E M M O M M S S R R U U W U T X X V Y Y V X X","B2 C2 D2 E2 F2 F3 F4 E4 E3 M3 S3 S4 R4 R3 U3 U2 W4 U4 T4 X4 X3 V2 V1 X1 X2 T2 T1 Q1 Q2 Q1 H1 H4 G4 G3 L2 L1 G1 G2 H2 H1 B1 B2 C2 D2 D3 J3 R3 R4 Q4 Q3 T3 T2 U2 U1 R1 R2 S2 S1 M1 M4 O2 M2 M1 E1 E4 D4 C4 C3 C4 B4 B3 H3 H4 G4 G3 L2 L1 G1 G2 H2 H3 Q3 T3 T4 X4 Z1 P2 P3 Z2 X2 T2 T1 Q1 Q2 R2 R3 U3 U4 T4 T1 T4 X4 Z1 P2 P3 Z2 X2 T2 T1 Q1 Q2 R2 S2 S1 M1 M4 O2 M2 M3 S3 S4 R4 R1 J1 J2 K2 J4 J1 D1 D2 E2 E3 M3 M4 O2 M2 M3 S3 S4 R4 R3 U3 U2 W4 U4 T4 X4 X3 V2 Y3 Y4 V1 X1 X2","B3_B2 B2_C2 C2_D2 D2_E2 E2_F2 F2_F3 F3_F4 F4_E4 E4_E3 E3_M3 M3_S3 S3_S4 S4_R4 R4_R3 R3_U3 U3_U2 U2_W4 W4_U4 U4_T4 T4_X4 X4_X3 X3_V2 V2_V1 V1_X1 X1_X2 X2_T2 T2_T1 T1_Q1 Q1_Q2 Q2_Q1 Q1_H1 H1_H4 H4_G4 G4_G3 G3_L2 L2_L1 L1_G1 G1_G2 G2_H2 H2_H1 H1_B1 B1_B2 B2_C2 C2_D2 D2_D3 D3_J3 J3_R3 R3_R4 R4_Q4 Q4_Q3 Q3_T3 T3_T2 T2_U2 U2_U1 U1_R1 R1_R2 R2_S2 S2_S1 S1_M1 M1_M4 M4_O2 O2_M2 M2_M1 M1_E1 E1_E4 E4_D4 D4_C4 C4_C3 C3_C4 C4_B4 B4_B3 B3_H3 H3_H4 H4_G4 G4_G3 G3_L2 L2_L1 L1_G1 G1_G2 G2_H2 H2_H3 H3_Q3 Q3_T3 T3_T4 T4_X4 X4_Z1 Z1_P2 P2_P3 P3_Z2 Z2_X2 X2_T2 T2_T1 T1_Q1 Q1_Q2 Q2_R2 R2_R3 R3_U3 U3_U4 U4_T4 T4_T1 T1_T4 T4_X4 X4_Z1 Z1_P2 P2_P3 P3_Z2 Z2_X2 X2_T2 T2_T1 T1_Q1 Q1_Q2 Q2_R2 R2_S2 S2_S1 S1_M1 M1_M4 M4_O2 O2_M2 M2_M3 M3_S3 S3_S4 S4_R4 R4_R1 R1_J1 J1_J2 J2_K2 K2_J4 J4_J1 J1_D1 D1_D2 D2_E2 E2_E3 E3_M3 M3_M4 M4_O2 O2_M2 M2_M3 M3_S3 S3_S4 S4_R4 R4_R3 R3_U3 U3_U2 U2_W4 W4_U4 U4_T4 T4_X4 X4_X3 X3_V2 V2_Y3 Y2_Y4 Y4_V1 V1_X1 X1_X2",FALSE,NA,NA,"X","E",NA,155,89,66,626.474025974026,499222,19076,2047727,2028651,NA,NA,NA,NA,NA,NA,NA,NA,NA,NA,NA,NA,NA,NA,1548505,289,11.8163022980965,NA,NA,NA
12,2018-05-02,"09:37:10",12,"2018-05-02","09:37:10",12,12,12,12,315,"MazeLearning-315-1",2,"ExploreProc",155,NA,NA,"X X V V X X T U W U T T Q Q R R U U T T T X Z Z Z P P Z X T T Q Q R R U U W U T X Z P P Z X T T Q H H G G L L G G H H Q T T X Z P P Z X T U U R R S S M M O M M S S S M E E E E F F N N F F E E M M M M O M M S S R R J J K J J D D E E E F F F E E M M O M M M M S S R R U U T T T X Z P P Z X X V","X3 V2 V1 X1 X2 T2 U2 W4 U4 T4 T1 Q1 Q2 R2 R3 U3 U4 T4 T1 T4 X4 Z1 Z2 Z1 P2 P3 Z2 X2 T2 T1 Q1 Q2 R2 R3 U3 U2 W4 U4 T4 X4 Z1 P2 P3 Z2 X2 T2 T1 Q1 H1 H4 G4 G3 L2 L1 G1 G2 H2 H3 Q3 T3 T4 X4 Z1 P2 P3 Z2 X2 T2 U2 U1 R1 R2 S2 S1 M1 M4 O2 M2 M3 S3 S4 S1 M1 E1 E4 E3 E2 F2 F3 N3 N1 F1 F4 E4 E3 M3 M4 M1 M4 O2 M2 M3 S3 S4 R4 R1 J1 J2 K2 J4 J1 D1 D2 E2 E3 E2 F2 F3 F4 E4 E3 M3 M4 O2 M2 M1 M4 M3 S3 S4 R4 R3 U3 U4 T4 T1 T4 X4 Z1 P2 P3 Z2 X2 X3 V2","X2_X3 X3_V2 V2_V1 V1_X1 X1_X2 X2_T2 T2_U2 U2_W4 W4_U4 U4_T4 T4_T1 T1_Q1 Q1_Q2 Q2_R2 R2_R3 R3_U3 U3_U4 U4_T4 T4_T1 T1_T4 T4_X4 X4_Z1 Z1_Z2 Z2_Z1 Z1_P2 P2_P3 P3_Z2 Z2_X2 X2_T2 T2_T1 T1_Q1 Q1_Q2 Q2_R2 R2_R3 R3_U3 U3_U2 U2_W4 W4_U4 U4_T4 T4_X4 X4_Z1 Z1_P2 P2_P3 P3_Z2 Z2_X2 X2_T2 T2_T1 T1_Q1 Q1_H1 H1_H4 H4_G4 G4_G3 G3_L2 L2_L1 L1_G1 G1_G2 G2_H2 H2_H3 H3_Q3 Q3_T3 T3_T4 T4_X4 X4_Z1 Z1_P2 P2_P3 P3_Z2 Z2_X2 X2_T2 T2_U2 U2_U1 U1_R1 R1_R2 R2_S2 S2_S1 S1_M1 M1_M4 M4_O2 O2_M2 M2_M3 M3_S3 S3_S4 S4_S1 S1_M1 M1_E1 E1_E4 E4_E3 E3_E2 E2_F2 F2_F3 F3_N3 N3_N1 N1_F1 F1_F4 F4_E4 E4_E3 E3_M3 M3_M4 M4_M1 M1_M4 M4_O2 O2_M2 M2_M3 M3_S3 S3_S4 S4_R4 R4_R1 R1_J1 J1_J2 J2_K2 K2_J4 J4_J1 J1_D1 D1_D2 D2_E2 E2_E3 E3_E2 E2_F2 F2_F3 F3_F4 F4_E4 E4_E3 E3_M3 M3_M4 M4_O2 O2_M2 M2_M1 M1_M4 M4_M3 M3_S3 S3_S4 S4_R4 R4_R3 R3_U3 U3_U4 U4_T4 T4_T1 T1_T4 T4_X4 X4_Z1 Z1_P2 P2_P3 P3_Z2 Z2_X2 X2_X3 X3_V2",FALSE,NA,NA,"V","E",NA,146,81,65,730.413793103448,982795,502889,2047727,1544838,NA,NA,NA,NA,NA,NA,NA,NA,NA,NA,NA,NA,NA,NA,1064932,264,2,NA,NA,NA
13,2018-01-24,"13:07:57",13,"2018-01-24","13:07:57",13,13,13,13,319,"MazeLearning-319-1",1,"ExploreProc",1,NA,NA,"U R J D D E F F N N F F F F E E M S S R Q Q H B B B B C C I C C D E E M M O M M M M E E D C C I C C B B H H G G A A G G H H Q T T U U U W U U U T T T X X V V X X X X Z P P Z Z P P Z X X V V X Z P P Z X X X X V V X X T T Q Q R R J J K J J J K J","R1 J1 D1 D2 E2 F2 F3 N3 N1 F1 F4 F3 F4 E4 E3 M3 S3 S4 R4 Q4 Q1 H1 B1 B2 B3 B2 C2 C3 I2 C1 C2 D2 E2 E3 M3 M4 O2 M2 M3 M4 M1 E1 E4 D4 C4 C3 I2 C1 C4 B4 B3 H3 H4 G4 G1 A4 A3 G3 G2 H2 H3 Q3 T3 T2 U2 U1 U2 W4 U4 U1 U4 T4 T1 T4 X4 X3 V2 V1 X1 X2 X3 X4 Z1 P2 P3 Z2 Z1 P2 P3 Z2 X2 X3 V2 V1 X1 Z1 P2 P3 Z2 X2 X3 X4 X3 V2 V1 X1 X2 T2 T1 Q1 Q2 R2 R1 J1 J2 K2 J4 J1 J2 K2 J4","U1_R1 R1_J1 J1_D1 D1_D2 D2_E2 E2_F2 F2_F3 F3_N3 N3_N1 N1_F1 F1_F4 F4_F3 F3_F4 F4_E4 E4_E3 E3_M3 M3_S3 S3_S4 S4_R4 R4_Q4 Q4_Q1 Q1_H1 H1_B1 B1_B2 B2_B3 B3_B2 B2_C2 C2_C3 C3_I2 I2_C1 C1_C2 C2_D2 D2_E2 E2_E3 E3_M3 M3_M4 M4_O2 O2_M2 M2_M3 M3_M4 M4_M1 M1_E1 E1_E4 E4_D4 D4_C4 C4_C3 C3_I2 I2_C1 C1_C4 C4_B4 B4_B3 B3_H3 H3_H4 H4_G4 G4_G1 G1_A4 A4_A3 A3_G3 G3_G2 G2_H2 H2_H3 H3_Q3 Q3_T3 T3_T2 T2_U2 U2_U1 U1_U2 U2_W4 W4_U4 U4_U1 U1_U4 U4_T4 T4_T1 T1_T4 T4_X4 X4_X3 X3_V2 V2_V1 V1_X1 X1_X2 X2_X3 X3_X4 X4_Z1 Z1_P2 P2_P3 P3_Z2 Z2_Z1 Z1_P2 P2_P3 P3_Z2 Z2_X2 X2_X3 X3_V2 V2_V1 V1_X1 X1_Z1 Z1_P2 P2_P3 P3_Z2 Z2_X2 X2_X3 X3_X4 X4_X3 X3_V2 V2_V1 V1_X1 X1_X2 X2_T2 T2_T1 T1_Q1 Q1_Q2 Q2_R2 R2_R1 R1_J1 J1_J2 J2_K2 K2_J4 J4_J1 J1_J2 J2_K2 K2_J4",FALSE,NA,NA,"J","W",NA,122,64,58,1415.9173553719,491425,13371,2395844,2382473,NA,NA,NA,NA,NA,NA,NA,NA,NA,NA,NA,NA,NA,NA,1904419,206.25,8.75,NA,NA,NA
14,2018-01-24,"13:07:57",14,"2018-01-24","13:07:57",14,14,14,14,319,"MazeLearning-319-1",2,"ExploreProc",122,NA,NA,"J J D D D J R R R U U U R R S S M M O M M E E D D D C C I C C B B H H G G L L G G H H B B B B C C I C C D D J J J J J R R R R R U U U U U R J J J D D D D D D E E M S S S M E E D D D D D E F F F F F E D C B B H Q Q R R R R R R U U W U U R R Q Q Q Q H H G G A A A A G G H H Q T T X X V V X X T","J1 D1 D4 D3 J3 R3 R2 R3 U3 U2 U1 R1 R2 S2 S1 M1 M4 O2 M2 M1 E1 E4 D4 D3 D4 C4 C3 I2 C1 C4 B4 B3 H3 H4 G4 G3 L2 L1 G1 G2 H2 H1 B1 B2 B3 B2 C2 C3 I2 C1 C2 D2 D3 J3 J2 J1 J2 J3 R3 R4 R3 R2 R3 U3 U4 U1 U2 U1 R1 J1 J2 J1 D1 D2 D3 D4 D3 D2 E2 E3 M3 S3 S4 S1 M1 E1 E4 D4 D3 D4 D3 D2 E2 F2 F3 F4 F3 F4 E4 D4 C4 B4 B3 H3 Q3 Q2 R2 R3 R2 R1 R4 R3 U3 U2 W4 U4 U1 R1 R4 Q4 Q1 Q2 Q1 H1 H4 G4 G1 A4 A3 A4 A3 G3 G2 H2 H3 Q3 T3 T4 X4 X3 V2 V1 X1 X2 T2","J4_J1 J1_D1 D1_D4 D4_D3 D3_J3 J3_R3 R3_R2 R2_R3 R3_U3 U3_U2 U2_U1 U1_R1 R1_R2 R2_S2 S2_S1 S1_M1 M1_M4 M4_O2 O2_M2 M2_M1 M1_E1 E1_E4 E4_D4 D4_D3 D3_D4 D4_C4 C4_C3 C3_I2 I2_C1 C1_C4 C4_B4 B4_B3 B3_H3 H3_H4 H4_G4 G4_G3 G3_L2 L2_L1 L1_G1 G1_G2 G2_H2 H2_H1 H1_B1 B1_B2 B2_B3 B3_B2 B2_C2 C2_C3 C3_I2 I2_C1 C1_C2 C2_D2 D2_D3 D3_J3 J3_J2 J2_J1 J1_J2 J2_J3 J3_R3 R3_R4 R4_R3 R3_R2 R2_R3 R3_U3 U3_U4 U4_U1 U1_U2 U2_U1 U1_R1 R1_J1 J1_J2 J2_J1 J1_D1 D1_D2 D2_D3 D3_D4 D4_D3 D3_D2 D2_E2 E2_E3 E3_M3 M3_S3 S3_S4 S4_S1 S1_M1 M1_E1 E1_E4 E4_D4 D4_D3 D3_D4 D4_D3 D3_D2 D2_E2 E2_F2 F2_F3 F3_F4 F4_F3 F3_F4 F4_E4 E4_D4 D4_C4 C4_B4 B4_B3 B3_H3 H3_Q3 Q3_Q2 Q2_R2 R2_R3 R3_R2 R2_R1 R1_R4 R4_R3 R3_U3 U3_U2 U2_W4 W4_U4 U4_U1 U1_R1 R1_R4 R4_Q4 Q4_Q1 Q1_Q2 Q2_Q1 Q1_H1 H1_H4 H4_G4 G4_G1 G1_A4 A4_A3 A3_A4 A4_A3 A3_G3 G3_G2 G2_H2 H2_H3 H3_Q3 Q3_T3 T3_T4 T4_X4 X4_X3 X3_V2 V2_V1 V1_X1 X1_X2 X2_T2",FALSE,NA,NA,"T","E",NA,146,62,84,1086.48275862069,1011237,530852,2395844,1864992,NA,NA,NA,NA,NA,NA,NA,NA,NA,NA,NA,NA,NA,NA,1384607,207.75,9.83933432707721,NA,NA,NA
15,2018-01-25,"13:27:38",15,"2018-01-25","13:27:38",15,15,15,15,320,"MazeLearning-320-1",1,"ExploreProc",1,NA,NA,"E D C C I C C C C D D J R R Q Q H H G G A A G L L G G H H Q T T X X V Y Y V X X T U W U U R R S S M M O M M E E F F N N F F E D D J J K J J R U U W U T X Z P P Z X T U W U U R J D D C C I C C B B H Q T T X Z P P Z X T U U R J D D E F F N N F F E","D4 C4 C3 I2 C1 C4 C3 C2 D2 D3 J3 R3 R4 Q4 Q1 H1 H4 G4 G1 A4 A3 G3 L2 L1 G1 G2 H2 H3 Q3 T3 T4 X4 X3 V2 Y3 Y4 V1 X1 X2 T2 U2 W4 U4 U1 R1 R2 S2 S1 M1 M4 O2 M2 M1 E1 E2 F2 F3 N3 N1 F1 F4 E4 D4 D3 J3 J2 K2 J4 J3 R3 U3 U2 W4 U4 T4 X4 Z1 P2 P3 Z2 X2 T2 U2 W4 U4 U1 R1 J1 D1 D4 C4 C3 I2 C1 C4 B4 B3 H3 Q3 T3 T4 X4 Z1 P2 P3 Z2 X2 T2 U2 U1 R1 J1 D1 D2 E2 F2 F3 N3 N1 F1 F4 E4","E4_D4 D4_C4 C4_C3 C3_I2 I2_C1 C1_C4 C4_C3 C3_C2 C2_D2 D2_D3 D3_J3 J3_R3 R3_R4 R4_Q4 Q4_Q1 Q1_H1 H1_H4 H4_G4 G4_G1 G1_A4 A4_A3 A3_G3 G3_L2 L2_L1 L1_G1 G1_G2 G2_H2 H2_H3 H3_Q3 Q3_T3 T3_T4 T4_X4 X4_X3 X3_V2 V2_Y3 Y2_Y4 Y4_V1 V1_X1 X1_X2 X2_T2 T2_U2 U2_W4 W4_U4 U4_U1 U1_R1 R1_R2 R2_S2 S2_S1 S1_M1 M1_M4 M4_O2 O2_M2 M2_M1 M1_E1 E1_E2 E2_F2 F2_F3 F3_N3 N3_N1 N1_F1 F1_F4 F4_E4 E4_D4 D4_D3 D3_J3 J3_J2 J2_K2 K2_J4 J4_J3 J3_R3 R3_U3 U3_U2 U2_W4 W4_U4 U4_T4 T4_X4 X4_Z1 Z1_P2 P2_P3 P3_Z2 Z2_X2 X2_T2 T2_U2 U2_W4 W4_U4 U4_U1 U1_R1 R1_J1 J1_D1 D1_D4 D4_C4 C4_C3 C3_I2 I2_C1 C1_C4 C4_B4 B4_B3 B3_H3 H3_Q3 Q3_T3 T3_T4 T4_X4 X4_Z1 Z1_P2 P2_P3 P3_Z2 Z2_X2 X2_T2 T2_U2 U2_U1 U1_R1 R1_J1 J1_D1 D1_D2 D2_E2 E2_F2 F2_F3 F3_N3 N3_N1 N1_F1 F1_F4 F4_E4",FALSE,NA,NA,"E","W",NA,123,79,44,1188.60655737705,496137,16165,2246339,2230174,NA,NA,NA,NA,NA,NA,NA,NA,NA,NA,NA,NA,NA,NA,1750202,262.5,0,NA,NA,NA
16,2018-01-25,"13:27:38",16,"2018-01-25","13:27:38",16,16,16,16,320,"MazeLearning-320-1",2,"ExploreProc",123,NA,NA,"E D C B B H Q T T T Q H B B C D D J R U U W U T X X V Y Y V X Z P P Z X T U U R R S S M E E F F N N F F E D C B B H H G G A A G L L G G H H Q T T X X V Y Y V X X X X T T Q Q R R R S S M E E F F F E D C C I C C B B H H G G A A G L L G G H H Q Q Q T T T T X Z P P Z X X V Y Y V X X T U W U U R R S S M M O","D4 C4 B4 B3 H3 Q3 T3 T4 T1 Q1 H1 B1 B2 C2 D2 D3 J3 R3 U3 U2 W4 U4 T4 X4 X3 V2 Y3 Y4 V1 X1 Z1 P2 P3 Z2 X2 T2 U2 U1 R1 R2 S2 S1 M1 E1 E2 F2 F3 N3 N1 F1 F4 E4 D4 C4 B4 B3 H3 H4 G4 G1 A4 A3 G3 L2 L1 G1 G2 H2 H3 Q3 T3 T4 X4 X3 V2 Y3 Y4 V1 X1 X2 X3 X2 T2 T1 Q1 Q2 R2 R3 R2 S2 S1 M1 E1 E2 F2 F3 F4 E4 D4 C4 C3 I2 C1 C4 B4 B3 H3 H4 G4 G1 A4 A3 G3 L2 L1 G1 G2 H2 H3 Q3 Q2 Q3 T3 T2 T1 T4 X4 Z1 P2 P3 Z2 X2 X3 V2 Y3 Y4 V1 X1 X2 T2 U2 W4 U4 U1 R1 R2 S2 S1 M1 M4 O2","E4_D4 D4_C4 C4_B4 B4_B3 B3_H3 H3_Q3 Q3_T3 T3_T4 T4_T1 T1_Q1 Q1_H1 H1_B1 B1_B2 B2_C2 C2_D2 D2_D3 D3_J3 J3_R3 R3_U3 U3_U2 U2_W4 W4_U4 U4_T4 T4_X4 X4_X3 X3_V2 V2_Y3 Y2_Y4 Y4_V1 V1_X1 X1_Z1 Z1_P2 P2_P3 P3_Z2 Z2_X2 X2_T2 T2_U2 U2_U1 U1_R1 R1_R2 R2_S2 S2_S1 S1_M1 M1_E1 E1_E2 E2_F2 F2_F3 F3_N3 N3_N1 N1_F1 F1_F4 F4_E4 E4_D4 D4_C4 C4_B4 B4_B3 B3_H3 H3_H4 H4_G4 G4_G1 G1_A4 A4_A3 A3_G3 G3_L2 L2_L1 L1_G1 G1_G2 G2_H2 H2_H3 H3_Q3 Q3_T3 T3_T4 T4_X4 X4_X3 X3_V2 V2_Y3 Y2_Y4 Y4_V1 V1_X1 X1_X2 X2_X3 X3_X2 X2_T2 T2_T1 T1_Q1 Q1_Q2 Q2_R2 R2_R3 R3_R2 R2_S2 S2_S1 S1_M1 M1_E1 E1_E2 E2_F2 F2_F3 F3_F4 F4_E4 E4_D4 D4_C4 C4_C3 C3_I2 I2_C1 C1_C4 C4_B4 B4_B3 B3_H3 H3_H4 H4_G4 G4_G1 G1_A4 A4_A3 A3_G3 G3_L2 L2_L1 L1_G1 G1_G2 G2_H2 H2_H3 H3_Q3 Q3_Q2 Q2_Q3 Q3_T3 T3_T2 T2_T1 T1_T4 T4_X4 X4_Z1 Z1_P2 P2_P3 P3_Z2 Z2_X2 X2_X3 X3_V2 V2_Y3 Y2_Y4 Y4_V1 V1_X1 X1_X2 X2_T2 T2_U2 U2_W4 W4_U4 U4_U1 U1_R1 R1_R2 R2_S2 S2_S1 S1_M1 M1_M4 M4_O2",FALSE,NA,NA,"O","E",NA,152,92,60,788.192052980132,978042,499697,2246339,1746642,NA,NA,NA,NA,NA,NA,NA,NA,NA,NA,NA,NA,NA,NA,1268297,286,6.80073525436772,NA,NA,NA
17,2017-12-06,"13:28:09",17,"2017-12-06","13:28:09",17,17,17,17,321,"MazeLearning-321-1",1,"ExploreProc",1,NA,NA,"U R R S S M E E F F N N F F E D C C C B B H H G G L L G A A G G H H B B C C C D D J J K J J R R R U U W U U U T T Q Q Q H H G G A A G L L G G H H B B C D E E M M O M M M M E E F F F E D D J R R Q Q T T T T X Z P P Z X X V Y Y V X X T T T U W U U R R Q Q H H G G L L G G H H B B C C I C C D E E M M O M M E E E","R1 R2 S2 S1 M1 E1 E2 F2 F3 N3 N1 F1 F4 E4 D4 C4 C3 C4 B4 B3 H3 H4 G4 G3 L2 L1 G1 A4 A3 G3 G2 H2 H1 B1 B2 C2 C3 C2 D2 D3 J3 J2 K2 J4 J3 R3 R2 R3 U3 U2 W4 U4 U1 U4 T4 T1 Q1 Q2 Q1 H1 H4 G4 G1 A4 A3 G3 L2 L1 G1 G2 H2 H1 B1 B2 C2 D2 E2 E3 M3 M4 O2 M2 M3 M4 M1 E1 E2 F2 F3 F4 E4 D4 D3 J3 R3 R4 Q4 Q3 T3 T2 T1 T4 X4 Z1 P2 P3 Z2 X2 X3 V2 Y3 Y4 V1 X1 X2 T2 T1 T2 U2 W4 U4 U1 R1 R4 Q4 Q1 H1 H4 G4 G3 L2 L1 G1 G2 H2 H1 B1 B2 C2 C3 I2 C1 C2 D2 E2 E3 M3 M4 O2 M2 M1 E1 E4 E3","U1_R1 R1_R2 R2_S2 S2_S1 S1_M1 M1_E1 E1_E2 E2_F2 F2_F3 F3_N3 N3_N1 N1_F1 F1_F4 F4_E4 E4_D4 D4_C4 C4_C3 C3_C4 C4_B4 B4_B3 B3_H3 H3_H4 H4_G4 G4_G3 G3_L2 L2_L1 L1_G1 G1_A4 A4_A3 A3_G3 G3_G2 G2_H2 H2_H1 H1_B1 B1_B2 B2_C2 C2_C3 C3_C2 C2_D2 D2_D3 D3_J3 J3_J2 J2_K2 K2_J4 J4_J3 J3_R3 R3_R2 R2_R3 R3_U3 U3_U2 U2_W4 W4_U4 U4_U1 U1_U4 U4_T4 T4_T1 T1_Q1 Q1_Q2 Q2_Q1 Q1_H1 H1_H4 H4_G4 G4_G1 G1_A4 A4_A3 A3_G3 G3_L2 L2_L1 L1_G1 G1_G2 G2_H2 H2_H1 H1_B1 B1_B2 B2_C2 C2_D2 D2_E2 E2_E3 E3_M3 M3_M4 M4_O2 O2_M2 M2_M3 M3_M4 M4_M1 M1_E1 E1_E2 E2_F2 F2_F3 F3_F4 F4_E4 E4_D4 D4_D3 D3_J3 J3_R3 R3_R4 R4_Q4 Q4_Q3 Q3_T3 T3_T2 T2_T1 T1_T4 T4_X4 X4_Z1 Z1_P2 P2_P3 P3_Z2 Z2_X2 X2_X3 X3_V2 V2_Y3 Y2_Y4 Y4_V1 V1_X1 X1_X2 X2_T2 T2_T1 T1_T2 T2_U2 U2_W4 W4_U4 U4_U1 U1_R1 R1_R4 R4_Q4 Q4_Q1 Q1_H1 H1_H4 H4_G4 G4_G3 G3_L2 L2_L1 L1_G1 G1_G2 G2_H2 H2_H1 H1_B1 B1_B2 B2_C2 C2_C3 C3_I2 I2_C1 C1_C2 C2_D2 D2_E2 E2_E3 E3_M3 M3_M4 M4_O2 O2_M2 M2_M1 M1_E1 E1_E4 E4_E3",FALSE,NA,NA,"E","S",NA,155,82,73,616.376623376623,499060,18578,2359753,2341175,NA,NA,NA,NA,NA,NA,NA,NA,NA,NA,NA,NA,NA,NA,1860693,271.25,12.2601998352392,NA,NA,NA
18,2017-12-06,"13:28:09",18,"2017-12-06","13:28:09",18,18,18,18,321,"MazeLearning-321-1",2,"ExploreProc",155,NA,NA,"E M S S R Q Q T T X Z P P Z X X V Y Y V X X T U W U U R R R J J K J J D D E E E F F N N F F F F E E M M M E E D D J J K J J R R R R R U U W U T T T X Z P P Z X X V Y Y V X X T T Q Q R R R R R R R R J D D D J R U U U U W U T T Q H H G G G G L L G A A G G H H H H B B B B C C I C C D E E M M M E E F F N N F F E E E D C C C B","M3 S3 S4 R4 Q4 Q3 T3 T4 X4 Z1 P2 P3 Z2 X2 X3 V2 Y3 Y4 V1 X1 X2 T2 U2 W4 U4 U1 R1 R2 R1 J1 J2 K2 J4 J1 D1 D2 E2 E3 E2 F2 F3 N3 N1 F1 F4 F3 F4 E4 E3 M3 M4 M1 E1 E4 D4 D3 J3 J2 K2 J4 J3 R3 R2 R3 R4 R3 U3 U2 W4 U4 T4 T1 T4 X4 Z1 P2 P3 Z2 X2 X3 V2 Y3 Y4 V1 X1 X2 T2 T1 Q1 Q2 R2 R1 R4 R3 R2 R1 R4 R1 J1 D1 D2 D3 J3 R3 U3 U4 U1 U2 W4 U4 T4 T1 Q1 H1 H4 G4 G1 G2 G3 L2 L1 G1 A4 A3 G3 G2 H2 H3 H4 H1 B1 B2 B3 B2 C2 C3 I2 C1 C2 D2 E2 E3 M3 M4 M1 E1 E2 F2 F3 N3 N1 F1 F4 E4 E3 E4 D4 C4 C3 C4 B4","E3_M3 M3_S3 S3_S4 S4_R4 R4_Q4 Q4_Q3 Q3_T3 T3_T4 T4_X4 X4_Z1 Z1_P2 P2_P3 P3_Z2 Z2_X2 X2_X3 X3_V2 V2_Y3 Y2_Y4 Y4_V1 V1_X1 X1_X2 X2_T2 T2_U2 U2_W4 W4_U4 U4_U1 U1_R1 R1_R2 R2_R1 R1_J1 J1_J2 J2_K2 K2_J4 J4_J1 J1_D1 D1_D2 D2_E2 E2_E3 E3_E2 E2_F2 F2_F3 F3_N3 N3_N1 N1_F1 F1_F4 F4_F3 F3_F4 F4_E4 E4_E3 E3_M3 M3_M4 M4_M1 M1_E1 E1_E4 E4_D4 D4_D3 D3_J3 J3_J2 J2_K2 K2_J4 J4_J3 J3_R3 R3_R2 R2_R3 R3_R4 R4_R3 R3_U3 U3_U2 U2_W4 W4_U4 U4_T4 T4_T1 T1_T4 T4_X4 X4_Z1 Z1_P2 P2_P3 P3_Z2 Z2_X2 X2_X3 X3_V2 V2_Y3 Y2_Y4 Y4_V1 V1_X1 X1_X2 X2_T2 T2_T1 T1_Q1 Q1_Q2 Q2_R2 R2_R1 R1_R4 R4_R3 R3_R2 R2_R1 R1_R4 R4_R1 R1_J1 J1_D1 D1_D2 D2_D3 D3_J3 J3_R3 R3_U3 U3_U4 U4_U1 U1_U2 U2_W4 W4_U4 U4_T4 T4_T1 T1_Q1 Q1_H1 H1_H4 H4_G4 G4_G1 G1_G2 G2_G3 G3_L2 L2_L1 L1_G1 G1_A4 A4_A3 A3_G3 G3_G2 G2_H2 H2_H3 H3_H4 H4_H1 H1_B1 B1_B2 B2_B3 B3_B2 B2_C2 C2_C3 C3_I2 I2_C1 C1_C2 C2_D2 D2_E2 E2_E3 E3_M3 M3_M4 M4_M1 M1_E1 E1_E2 E2_F2 F2_F3 F3_N3 N3_N1 N1_F1 F1_F4 F4_E4 E4_E3 E3_E4 E4_D4 D4_C4 C4_C3 C3_C4 C4_B4",FALSE,NA,NA,"B","W",NA,162,82,80,481.11801242236,1000901,521767,2359753,1837986,NA,NA,NA,NA,NA,NA,NA,NA,NA,NA,NA,NA,NA,NA,1358852,273.5,8,NA,NA,NA
19,2018-02-06,"09:38:39",19,"2018-02-06","09:38:39",19,19,19,19,322,"MazeLearning-322-1",1,"ExploreProc",1,NA,NA,"T U U R J J K J J R R S S M M O M M S S R Q Q H H G G A A G G H H Q T T X X V Y Y V X X T U W U U R J D D E E M M O M M E E F F N N F F F F E E M M O M M S S R R U U W U T T T X X V V X X T T Q H B B C D E E M M M E E F F F E E M M M E E D D D C","U2 U1 R1 J1 J2 K2 J4 J3 R3 R2 S2 S1 M1 M4 O2 M2 M3 S3 S4 R4 Q4 Q1 H1 H4 G4 G1 A4 A3 G3 G2 H2 H3 Q3 T3 T4 X4 X3 V2 Y3 Y4 V1 X1 X2 T2 U2 W4 U4 U1 R1 J1 D1 D2 E2 E3 M3 M4 O2 M2 M1 E1 E2 F2 F3 N3 N1 F1 F4 F3 F4 E4 E3 M3 M4 O2 M2 M3 S3 S4 R4 R3 U3 U2 W4 U4 T4 T1 T4 X4 X3 V2 V1 X1 X2 T2 T1 Q1 H1 B1 B2 C2 D2 E2 E3 M3 M4 M1 E1 E2 F2 F3 F4 E4 E3 M3 M4 M1 E1 E4 D4 D3 D4 C4","T2_U2 U2_U1 U1_R1 R1_J1 J1_J2 J2_K2 K2_J4 J4_J3 J3_R3 R3_R2 R2_S2 S2_S1 S1_M1 M1_M4 M4_O2 O2_M2 M2_M3 M3_S3 S3_S4 S4_R4 R4_Q4 Q4_Q1 Q1_H1 H1_H4 H4_G4 G4_G1 G1_A4 A4_A3 A3_G3 G3_G2 G2_H2 H2_H3 H3_Q3 Q3_T3 T3_T4 T4_X4 X4_X3 X3_V2 V2_Y3 Y2_Y4 Y4_V1 V1_X1 X1_X2 X2_T2 T2_U2 U2_W4 W4_U4 U4_U1 U1_R1 R1_J1 J1_D1 D1_D2 D2_E2 E2_E3 E3_M3 M3_M4 M4_O2 O2_M2 M2_M1 M1_E1 E1_E2 E2_F2 F2_F3 F3_N3 N3_N1 N1_F1 F1_F4 F4_F3 F3_F4 F4_E4 E4_E3 E3_M3 M3_M4 M4_O2 O2_M2 M2_M3 M3_S3 S3_S4 S4_R4 R4_R3 R3_U3 U3_U2 U2_W4 W4_U4 U4_T4 T4_T1 T1_T4 T4_X4 X4_X3 X3_V2 V2_V1 V1_X1 X1_X2 X2_T2 T2_T1 T1_Q1 Q1_H1 H1_B1 B1_B2 B2_C2 C2_D2 D2_E2 E2_E3 E3_M3 M3_M4 M4_M1 M1_E1 E1_E2 E2_F2 F2_F3 F3_F4 F4_E4 E4_E3 E3_M3 M3_M4 M4_M1 M1_E1 E1_E4 E4_D4 D4_D3 D3_D4 D4_C4",FALSE,NA,NA,"C","W",NA,123,68,55,1354.00819672131,493637,13596,2229230,2215634,NA,NA,NA,NA,NA,NA,NA,NA,NA,NA,NA,NA,NA,NA,1735593,240.25,11.8453577404821,NA,NA,NA
20,2018-02-06,"09:38:39",20,"2018-02-06","09:38:39",20,20,20,20,322,"MazeLearning-322-1",2,"ExploreProc",123,NA,NA,"C B B H Q Q R R J J K J J D D C C I C C B B H H G G A A G L L G G H H B B C D E E M S S R R R Q Q T T X X V V X X T T Q H B B C D E F F F E E M M M E E E E F F F E D D D C C I C C B B H H G G A A G G H H H H B B C D D D E E E F F F E E M M M S S R R R R R R R R U U T T T X X V V X Z P P Z X T U","B4 B3 H3 Q3 Q2 R2 R1 J1 J2 K2 J4 J1 D1 D4 C4 C3 I2 C1 C4 B4 B3 H3 H4 G4 G1 A4 A3 G3 L2 L1 G1 G2 H2 H1 B1 B2 C2 D2 E2 E3 M3 S3 S4 R4 R3 R4 Q4 Q3 T3 T4 X4 X3 V2 V1 X1 X2 T2 T1 Q1 H1 B1 B2 C2 D2 E2 F2 F3 F4 E4 E3 M3 M4 M1 E1 E4 E3 E2 F2 F3 F4 E4 D4 D3 D4 C4 C3 I2 C1 C4 B4 B3 H3 H4 G4 G1 A4 A3 G3 G2 H2 H3 H4 H1 B1 B2 C2 D2 D3 D2 E2 E3 E2 F2 F3 F4 E4 E3 M3 M4 M3 S3 S4 R4 R3 R4 R1 R4 R3 R2 R3 U3 U4 T4 T1 T4 X4 X3 V2 V1 X1 Z1 P2 P3 Z2 X2 T2 U2","C4_B4 B4_B3 B3_H3 H3_Q3 Q3_Q2 Q2_R2 R2_R1 R1_J1 J1_J2 J2_K2 K2_J4 J4_J1 J1_D1 D1_D4 D4_C4 C4_C3 C3_I2 I2_C1 C1_C4 C4_B4 B4_B3 B3_H3 H3_H4 H4_G4 G4_G1 G1_A4 A4_A3 A3_G3 G3_L2 L2_L1 L1_G1 G1_G2 G2_H2 H2_H1 H1_B1 B1_B2 B2_C2 C2_D2 D2_E2 E2_E3 E3_M3 M3_S3 S3_S4 S4_R4 R4_R3 R3_R4 R4_Q4 Q4_Q3 Q3_T3 T3_T4 T4_X4 X4_X3 X3_V2 V2_V1 V1_X1 X1_X2 X2_T2 T2_T1 T1_Q1 Q1_H1 H1_B1 B1_B2 B2_C2 C2_D2 D2_E2 E2_F2 F2_F3 F3_F4 F4_E4 E4_E3 E3_M3 M3_M4 M4_M1 M1_E1 E1_E4 E4_E3 E3_E2 E2_F2 F2_F3 F3_F4 F4_E4 E4_D4 D4_D3 D3_D4 D4_C4 C4_C3 C3_I2 I2_C1 C1_C4 C4_B4 B4_B3 B3_H3 H3_H4 H4_G4 G4_G1 G1_A4 A4_A3 A3_G3 G3_G2 G2_H2 H2_H3 H3_H4 H4_H1 H1_B1 B1_B2 B2_C2 C2_D2 D2_D3 D3_D2 D2_E2 E2_E3 E3_E2 E2_F2 F2_F3 F3_F4 F4_E4 E4_E3 E3_M3 M3_M4 M4_M3 M3_S3 S3_S4 S4_R4 R4_R3 R3_R4 R4_R1 R1_R4 R4_R3 R3_R2 R2_R3 R3_U3 U3_U4 U4_T4 T4_T1 T1_T4 T4_X4 X4_X3 X3_V2 V2_V1 V1_X1 X1_Z1 Z1_P2 P2_P3 P3_Z2 Z2_X2 X2_T2 T2_U2",FALSE,NA,NA,"U","E",NA,148,74,74,1125.80952380952,1002489,522957,2229230,1706273,NA,NA,NA,NA,NA,NA,NA,NA,NA,NA,NA,NA,NA,NA,1226741,221.25,12.1269328356349,NA,NA,NA
21,2018-02-21,"10:02:13",21,"2018-02-21","10:02:13",21,21,21,21,323,"MazeLearning-323-1",1,"ExploreProc",1,NA,NA,"B H Q Q R R J D D E F F N N F F F F E E M S S R R U U W U U R R R J J K J J D D C C I C C B B H H G G A A G G H H Q T T X X V Y Y V X X T T Q Q Q H B B B H H G G L L G G H H Q Q Q T T X X V Y Y V V V X X T T Q Q Q H H G G L L G A A G G H H B B C C I C C D D J J K J J R","H3 Q3 Q2 R2 R1 J1 D1 D2 E2 F2 F3 N3 N1 F1 F4 F3 F4 E4 E3 M3 S3 S4 R4 R3 U3 U2 W4 U4 U1 R1 R2 R1 J1 J2 K2 J4 J1 D1 D4 C4 C3 I2 C1 C4 B4 B3 H3 H4 G4 G1 A4 A3 G3 G2 H2 H3 Q3 T3 T4 X4 X3 V2 Y3 Y4 V1 X1 X2 T2 T1 Q1 Q2 Q1 H1 B1 B2 B3 H3 H4 G4 G3 L2 L1 G1 G2 H2 H3 Q3 Q2 Q3 T3 T4 X4 X3 V2 Y3 Y4 V1 V2 V1 X1 X2 T2 T1 Q1 Q2 Q1 H1 H4 G4 G3 L2 L1 G1 A4 A3 G3 G2 H2 H1 B1 B2 C2 C3 I2 C1 C2 D2 D3 J3 J2 K2 J4 J3 R3","B3_H3 H3_Q3 Q3_Q2 Q2_R2 R2_R1 R1_J1 J1_D1 D1_D2 D2_E2 E2_F2 F2_F3 F3_N3 N3_N1 N1_F1 F1_F4 F4_F3 F3_F4 F4_E4 E4_E3 E3_M3 M3_S3 S3_S4 S4_R4 R4_R3 R3_U3 U3_U2 U2_W4 W4_U4 U4_U1 U1_R1 R1_R2 R2_R1 R1_J1 J1_J2 J2_K2 K2_J4 J4_J1 J1_D1 D1_D4 D4_C4 C4_C3 C3_I2 I2_C1 C1_C4 C4_B4 B4_B3 B3_H3 H3_H4 H4_G4 G4_G1 G1_A4 A4_A3 A3_G3 G3_G2 G2_H2 H2_H3 H3_Q3 Q3_T3 T3_T4 T4_X4 X4_X3 X3_V2 V2_Y3 Y2_Y4 Y4_V1 V1_X1 X1_X2 X2_T2 T2_T1 T1_Q1 Q1_Q2 Q2_Q1 Q1_H1 H1_B1 B1_B2 B2_B3 B3_H3 H3_H4 H4_G4 G4_G3 G3_L2 L2_L1 L1_G1 G1_G2 G2_H2 H2_H3 H3_Q3 Q3_Q2 Q2_Q3 Q3_T3 T3_T4 T4_X4 X4_X3 X3_V2 V2_Y3 Y2_Y4 Y4_V1 V1_V2 V2_V1 V1_X1 X1_X2 X2_T2 T2_T1 T1_Q1 Q1_Q2 Q2_Q1 Q1_H1 H1_H4 H4_G4 G4_G3 G3_L2 L2_L1 L1_G1 G1_A4 A4_A3 A3_G3 G3_G2 G2_H2 H2_H1 H1_B1 B1_B2 B2_C2 C2_C3 C3_I2 I2_C1 C1_C2 C2_D2 D2_D3 D3_J3 J3_J2 J2_K2 K2_J4 J4_J3 J3_R3",FALSE,NA,NA,"R","S",NA,135,71,64,1065.58208955224,491515,14151,2134080,2119929,NA,NA,NA,NA,NA,NA,NA,NA,NA,NA,NA,NA,NA,NA,1642565,231,9.17877987534291,NA,NA,NA
22,2018-02-21,"10:02:13",22,"2018-02-21","10:02:13",22,22,22,22,323,"MazeLearning-323-1",2,"ExploreProc",135,NA,NA,"R U U T X X V Y Y V X Z P P Z X X V V X X T T Q H B B B H H G G A A G L L G G H H B B C D E E M M O M M E E D D J J J J K J J J J D D E F F F E E M S S R R J J K J J R R S S M M O M M M M E E D C C I C C C C B B H H G G A A G L L G G H H Q Q Q T T X X V V X Z P P Z X X V V X Z P P","U3 U4 T4 X4 X3 V2 Y3 Y4 V1 X1 Z1 P2 P3 Z2 X2 X3 V2 V1 X1 X2 T2 T1 Q1 H1 B1 B2 B3 H3 H4 G4 G1 A4 A3 G3 L2 L1 G1 G2 H2 H1 B1 B2 C2 D2 E2 E3 M3 M4 O2 M2 M1 E1 E4 D4 D3 J3 J2 J1 J2 K2 J4 J3 J2 J1 D1 D2 E2 F2 F3 F4 E4 E3 M3 S3 S4 R4 R1 J1 J2 K2 J4 J3 R3 R2 S2 S1 M1 M4 O2 M2 M3 M4 M1 E1 E4 D4 C4 C3 I2 C1 C2 C3 C4 B4 B3 H3 H4 G4 G1 A4 A3 G3 L2 L1 G1 G2 H2 H3 Q3 Q2 Q3 T3 T4 X4 X3 V2 V1 X1 Z1 P2 P3 Z2 X2 X3 V2 V1 X1 Z1 P2 P3","R3_U3 U3_U4 U4_T4 T4_X4 X4_X3 X3_V2 V2_Y3 Y2_Y4 Y4_V1 V1_X1 X1_Z1 Z1_P2 P2_P3 P3_Z2 Z2_X2 X2_X3 X3_V2 V2_V1 V1_X1 X1_X2 X2_T2 T2_T1 T1_Q1 Q1_H1 H1_B1 B1_B2 B2_B3 B3_H3 H3_H4 H4_G4 G4_G1 G1_A4 A4_A3 A3_G3 G3_L2 L2_L1 L1_G1 G1_G2 G2_H2 H2_H1 H1_B1 B1_B2 B2_C2 C2_D2 D2_E2 E2_E3 E3_M3 M3_M4 M4_O2 O2_M2 M2_M1 M1_E1 E1_E4 E4_D4 D4_D3 D3_J3 J3_J2 J2_J1 J1_J2 J2_K2 K2_J4 J4_J3 J3_J2 J2_J1 J1_D1 D1_D2 D2_E2 E2_F2 F2_F3 F3_F4 F4_E4 E4_E3 E3_M3 M3_S3 S3_S4 S4_R4 R4_R1 R1_J1 J1_J2 J2_K2 K2_J4 J4_J3 J3_R3 R3_R2 R2_S2 S2_S1 S1_M1 M1_M4 M4_O2 O2_M2 M2_M3 M3_M4 M4_M1 M1_E1 E1_E4 E4_D4 D4_C4 C4_C3 C3_I2 I2_C1 C1_C2 C2_C3 C3_C4 C4_B4 B4_B3 B3_H3 H3_H4 H4_G4 G4_G1 G1_A4 A4_A3 A3_G3 G3_L2 L2_L1 L1_G1 G1_G2 G2_H2 H2_H3 H3_Q3 Q3_Q2 Q2_Q3 Q3_T3 T3_T4 T4_X4 X4_X3 X3_V2 V2_V1 V1_X1 X1_Z1 Z1_P2 P2_P3 P3_Z2 Z2_X2 X2_X3 X3_V2 V2_V1 V1_X1 X1_Z1 Z1_P2 P2_P3",FALSE,NA,NA,"P","S",NA,141,77,64,893,994197,514995,2134080,1619085,NA,NA,NA,NA,NA,NA,NA,NA,NA,NA,NA,NA,NA,NA,1139883,236,7.25430906427345,NA,NA,NA
23,2018-03-13,"13:07:57",23,"2018-03-13","13:07:57",23,23,23,23,324,"MazeLearning-324-1",1,"ExploreProc",1,NA,NA,"B H H G G A A G L L G G H H B B C D E F F F E E M S S R R U U W U T T Q Q R R J J K J J D D E E E F F F E D D J J J R R R R Q Q H H G G L L G A A G G H H B B C D E F F F E E E D D J J K J J R R R R S S M M O M M E E D D D C C C B B H H G G G G L L G A A G G H H B B C D D J R U U W U T T Q Q Q H B","H3 H4 G4 G1 A4 A3 G3 L2 L1 G1 G2 H2 H1 B1 B2 C2 D2 E2 F2 F3 F4 E4 E3 M3 S3 S4 R4 R3 U3 U2 W4 U4 T4 T1 Q1 Q2 R2 R1 J1 J2 K2 J4 J1 D1 D2 E2 E3 E2 F2 F3 F4 E4 D4 D3 J3 J2 J3 R3 R2 R3 R4 Q4 Q1 H1 H4 G4 G3 L2 L1 G1 A4 A3 G3 G2 H2 H1 B1 B2 C2 D2 E2 F2 F3 F4 E4 E3 E4 D4 D3 J3 J2 K2 J4 J3 R3 R4 R1 R2 S2 S1 M1 M4 O2 M2 M1 E1 E4 D4 D3 D4 C4 C3 C4 B4 B3 H3 H4 G4 G3 G2 G3 L2 L1 G1 A4 A3 G3 G2 H2 H1 B1 B2 C2 D2 D3 J3 R3 U3 U2 W4 U4 T4 T1 Q1 Q2 Q1 H1 B1","B3_H3 H3_H4 H4_G4 G4_G1 G1_A4 A4_A3 A3_G3 G3_L2 L2_L1 L1_G1 G1_G2 G2_H2 H2_H1 H1_B1 B1_B2 B2_C2 C2_D2 D2_E2 E2_F2 F2_F3 F3_F4 F4_E4 E4_E3 E3_M3 M3_S3 S3_S4 S4_R4 R4_R3 R3_U3 U3_U2 U2_W4 W4_U4 U4_T4 T4_T1 T1_Q1 Q1_Q2 Q2_R2 R2_R1 R1_J1 J1_J2 J2_K2 K2_J4 J4_J1 J1_D1 D1_D2 D2_E2 E2_E3 E3_E2 E2_F2 F2_F3 F3_F4 F4_E4 E4_D4 D4_D3 D3_J3 J3_J2 J2_J3 J3_R3 R3_R2 R2_R3 R3_R4 R4_Q4 Q4_Q1 Q1_H1 H1_H4 H4_G4 G4_G3 G3_L2 L2_L1 L1_G1 G1_A4 A4_A3 A3_G3 G3_G2 G2_H2 H2_H1 H1_B1 B1_B2 B2_C2 C2_D2 D2_E2 E2_F2 F2_F3 F3_F4 F4_E4 E4_E3 E3_E4 E4_D4 D4_D3 D3_J3 J3_J2 J2_K2 K2_J4 J4_J3 J3_R3 R3_R4 R4_R1 R1_R2 R2_S2 S2_S1 S1_M1 M1_M4 M4_O2 O2_M2 M2_M1 M1_E1 E1_E4 E4_D4 D4_D3 D3_D4 D4_C4 C4_C3 C3_C4 C4_B4 B4_B3 B3_H3 H3_H4 H4_G4 G4_G3 G3_G2 G2_G3 G3_L2 L2_L1 L1_G1 G1_A4 A4_A3 A3_G3 G3_G2 G2_H2 H2_H1 H1_B1 B1_B2 B2_C2 C2_D2 D2_D3 D3_J3 J3_R3 R3_U3 U3_U2 U2_W4 W4_U4 U4_T4 T4_T1 T1_Q1 Q1_Q2 Q2_Q1 Q1_H1 H1_B1",FALSE,NA,NA,"B","N",NA,149,78,71,839.189189189189,489182,10756,2323445,2312689,NA,NA,NA,NA,NA,NA,NA,NA,NA,NA,NA,NA,NA,NA,1834263,259.5,0,NA,NA,NA
24,2018-03-13,"13:07:57",24,"2018-03-13","13:07:57",24,24,24,24,324,"MazeLearning-324-1",2,"ExploreProc",149,NA,NA,"B B C C I C C D D J J K J J R R R U U T T T X X V V X Z P P Z X X X X V V X Z P P Z X X V V X X T T Q Q R R R R J J K J J R R S S M M O M M E E F F F E D D D C C I C C B B H H G G A A G L L G G H H H H B B B H Q Q Q T T X X V V X X T U U R R S S M M O M M S S R Q Q H H G G L L G A","B2 C2 C3 I2 C1 C2 D2 D3 J3 J2 K2 J4 J3 R3 R2 R3 U3 U4 T4 T1 T4 X4 X3 V2 V1 X1 Z1 P2 P3 Z2 X2 X3 X2 X3 V2 V1 X1 Z1 P2 P3 Z2 X2 X3 V2 V1 X1 X2 T2 T1 Q1 Q2 R2 R3 R4 R1 J1 J2 K2 J4 J3 R3 R2 S2 S1 M1 M4 O2 M2 M1 E1 E2 F2 F3 F4 E4 D4 D3 D4 C4 C3 I2 C1 C4 B4 B3 H3 H4 G4 G1 A4 A3 G3 L2 L1 G1 G2 H2 H3 H4 H1 B1 B2 B3 H3 Q3 Q2 Q3 T3 T4 X4 X3 V2 V1 X1 X2 T2 U2 U1 R1 R2 S2 S1 M1 M4 O2 M2 M3 S3 S4 R4 Q4 Q1 H1 H4 G4 G3 L2 L1 G1 A4","B1_B2 B2_C2 C2_C3 C3_I2 I2_C1 C1_C2 C2_D2 D2_D3 D3_J3 J3_J2 J2_K2 K2_J4 J4_J3 J3_R3 R3_R2 R2_R3 R3_U3 U3_U4 U4_T4 T4_T1 T1_T4 T4_X4 X4_X3 X3_V2 V2_V1 V1_X1 X1_Z1 Z1_P2 P2_P3 P3_Z2 Z2_X2 X2_X3 X3_X2 X2_X3 X3_V2 V2_V1 V1_X1 X1_Z1 Z1_P2 P2_P3 P3_Z2 Z2_X2 X2_X3 X3_V2 V2_V1 V1_X1 X1_X2 X2_T2 T2_T1 T1_Q1 Q1_Q2 Q2_R2 R2_R3 R3_R4 R4_R1 R1_J1 J1_J2 J2_K2 K2_J4 J4_J3 J3_R3 R3_R2 R2_S2 S2_S1 S1_M1 M1_M4 M4_O2 O2_M2 M2_M1 M1_E1 E1_E2 E2_F2 F2_F3 F3_F4 F4_E4 E4_D4 D4_D3 D3_D4 D4_C4 C4_C3 C3_I2 I2_C1 C1_C4 C4_B4 B4_B3 B3_H3 H3_H4 H4_G4 G4_G1 G1_A4 A4_A3 A3_G3 G3_L2 L2_L1 L1_G1 G1_G2 G2_H2 H2_H3 H3_H4 H4_H1 H1_B1 B1_B2 B2_B3 B3_H3 H3_Q3 Q3_Q2 Q2_Q3 Q3_T3 T3_T4 T4_X4 X4_X3 X3_V2 V2_V1 V1_X1 X1_X2 X2_T2 T2_U2 U2_U1 U1_R1 R1_R2 R2_S2 S2_S1 S1_M1 M1_M4 M4_O2 O2_M2 M2_M3 M3_S3 S3_S4 S4_R4 R4_Q4 Q4_Q1 Q1_H1 H1_H4 H4_G4 G4_G3 G3_L2 L2_L1 L1_G1 G1_A4",FALSE,NA,NA,"A","W",NA,141,73,68,926.478571428571,990101,511782,2323445,1811663,NA,NA,NA,NA,NA,NA,NA,NA,NA,NA,NA,NA,NA,NA,1333344,225.5,3,NA,NA,NA
25,2018-04-02,"14:42:57",25,"2018-04-02","14:42:57",25,25,25,25,325,"MazeLearning-325-1",1,"ExploreProc",1,NA,NA,"U R J D D E E M S S R R R Q Q H H G G A A G L L G A A G G H H B B B B C C I C C D D J J K J J D D E E M M O M M E E F F N N F F E E M S S R R U U W U T T T X Z P P Z X X V Y Y V X X T T Q H H G G L L G G H H B B C C I C C D D J J K J J D D E E M M O M M S S R R U U W U T X X V V X X T T","R1 J1 D1 D2 E2 E3 M3 S3 S4 R4 R1 R4 Q4 Q1 H1 H4 G4 G1 A4 A3 G3 L2 L1 G1 A4 A3 G3 G2 H2 H1 B1 B2 B3 B2 C2 C3 I2 C1 C2 D2 D3 J3 J2 K2 J4 J1 D1 D2 E2 E3 M3 M4 O2 M2 M1 E1 E2 F2 F3 N3 N1 F1 F4 E4 E3 M3 S3 S4 R4 R3 U3 U2 W4 U4 T4 T1 T4 X4 Z1 P2 P3 Z2 X2 X3 V2 Y3 Y4 V1 X1 X2 T2 T1 Q1 H1 H4 G4 G3 L2 L1 G1 G2 H2 H1 B1 B2 C2 C3 I2 C1 C2 D2 D3 J3 J2 K2 J4 J1 D1 D2 E2 E3 M3 M4 O2 M2 M3 S3 S4 R4 R3 U3 U2 W4 U4 T4 X4 X3 V2 V1 X1 X2 T2 T1","U1_R1 R1_J1 J1_D1 D1_D2 D2_E2 E2_E3 E3_M3 M3_S3 S3_S4 S4_R4 R4_R1 R1_R4 R4_Q4 Q4_Q1 Q1_H1 H1_H4 H4_G4 G4_G1 G1_A4 A4_A3 A3_G3 G3_L2 L2_L1 L1_G1 G1_A4 A4_A3 A3_G3 G3_G2 G2_H2 H2_H1 H1_B1 B1_B2 B2_B3 B3_B2 B2_C2 C2_C3 C3_I2 I2_C1 C1_C2 C2_D2 D2_D3 D3_J3 J3_J2 J2_K2 K2_J4 J4_J1 J1_D1 D1_D2 D2_E2 E2_E3 E3_M3 M3_M4 M4_O2 O2_M2 M2_M1 M1_E1 E1_E2 E2_F2 F2_F3 F3_N3 N3_N1 N1_F1 F1_F4 F4_E4 E4_E3 E3_M3 M3_S3 S3_S4 S4_R4 R4_R3 R3_U3 U3_U2 U2_W4 W4_U4 U4_T4 T4_T1 T1_T4 T4_X4 X4_Z1 Z1_P2 P2_P3 P3_Z2 Z2_X2 X2_X3 X3_V2 V2_Y3 Y2_Y4 Y4_V1 V1_X1 X1_X2 X2_T2 T2_T1 T1_Q1 Q1_H1 H1_H4 H4_G4 G4_G3 G3_L2 L2_L1 L1_G1 G1_G2 G2_H2 H2_H1 H1_B1 B1_B2 B2_C2 C2_C3 C3_I2 I2_C1 C1_C2 C2_D2 D2_D3 D3_J3 J3_J2 J2_K2 K2_J4 J4_J1 J1_D1 D1_D2 D2_E2 E2_E3 E3_M3 M3_M4 M4_O2 O2_M2 M2_M3 M3_S3 S3_S4 S4_R4 R4_R3 R3_U3 U3_U2 U2_W4 W4_U4 U4_T4 T4_X4 X4_X3 X3_V2 V2_V1 V1_X1 X1_X2 X2_T2 T2_T1",FALSE,NA,NA,"T","N",NA,144,81,63,781.027972027972,493457,13513,2058075,2044562,NA,NA,NA,NA,NA,NA,NA,NA,NA,NA,NA,NA,NA,NA,1564618,263.5,4.5,NA,NA,NA
26,2018-04-02,"14:42:57",26,"2018-04-02","14:42:57",26,26,26,26,325,"MazeLearning-325-1",2,"ExploreProc",144,NA,NA,"T Q Q R R R S S M M O M M E E F F F E D D J J K J J D D C C I C C B B H Q Q Q T T X X X T T Q Q R R R R U U W U U R R S S M M O M M E E D C C I C C D D J R U U W U T X Z P P Z X T T Q Q R R J J K J J D D C B B H H G G A A G L L G G H H Q Q R S S M E E F F N N F F E","Q1 Q2 R2 R1 R2 S2 S1 M1 M4 O2 M2 M1 E1 E2 F2 F3 F4 E4 D4 D3 J3 J2 K2 J4 J1 D1 D4 C4 C3 I2 C1 C4 B4 B3 H3 Q3 Q2 Q3 T3 T4 X4 X3 X2 T2 T1 Q1 Q2 R2 R1 R2 R3 U3 U2 W4 U4 U1 R1 R2 S2 S1 M1 M4 O2 M2 M1 E1 E4 D4 C4 C3 I2 C1 C2 D2 D3 J3 R3 U3 U2 W4 U4 T4 X4 Z1 P2 P3 Z2 X2 T2 T1 Q1 Q2 R2 R1 J1 J2 K2 J4 J1 D1 D4 C4 B4 B3 H3 H4 G4 G1 A4 A3 G3 L2 L1 G1 G2 H2 H3 Q3 Q2 R2 S2 S1 M1 E1 E2 F2 F3 N3 N1 F1 F4 E4","T1_Q1 Q1_Q2 Q2_R2 R2_R1 R1_R2 R2_S2 S2_S1 S1_M1 M1_M4 M4_O2 O2_M2 M2_M1 M1_E1 E1_E2 E2_F2 F2_F3 F3_F4 F4_E4 E4_D4 D4_D3 D3_J3 J3_J2 J2_K2 K2_J4 J4_J1 J1_D1 D1_D4 D4_C4 C4_C3 C3_I2 I2_C1 C1_C4 C4_B4 B4_B3 B3_H3 H3_Q3 Q3_Q2 Q2_Q3 Q3_T3 T3_T4 T4_X4 X4_X3 X3_X2 X2_T2 T2_T1 T1_Q1 Q1_Q2 Q2_R2 R2_R1 R1_R2 R2_R3 R3_U3 U3_U2 U2_W4 W4_U4 U4_U1 U1_R1 R1_R2 R2_S2 S2_S1 S1_M1 M1_M4 M4_O2 O2_M2 M2_M1 M1_E1 E1_E4 E4_D4 D4_C4 C4_C3 C3_I2 I2_C1 C1_C2 C2_D2 D2_D3 D3_J3 J3_R3 R3_U3 U3_U2 U2_W4 W4_U4 U4_T4 T4_X4 X4_Z1 Z1_P2 P2_P3 P3_Z2 Z2_X2 X2_T2 T2_T1 T1_Q1 Q1_Q2 Q2_R2 R2_R1 R1_J1 J1_J2 J2_K2 K2_J4 J4_J1 J1_D1 D1_D4 D4_C4 C4_B4 B4_B3 B3_H3 H3_H4 H4_G4 G4_G1 G1_A4 A4_A3 A3_G3 G3_L2 L2_L1 L1_G1 G1_G2 G2_H2 H2_H3 H3_Q3 Q3_Q2 Q2_R2 R2_S2 S2_S1 S1_M1 M1_E1 E1_E2 E2_F2 F2_F3 F3_N3 N3_N1 N1_F1 F1_F4 F4_E4",FALSE,NA,NA,"E","W",NA,133,75,58,1081.39393939394,988454,507870,2058075,1550205,NA,NA,NA,NA,NA,NA,NA,NA,NA,NA,NA,NA,NA,NA,1069621,252.25,14.2148689758295,NA,NA,NA
27,2018-04-04,"14:21:51",27,"2018-04-04","14:21:51",27,27,27,27,326,"MazeLearning-326-1",1,"ExploreProc",1,NA,NA,"U R J J K J J D D C C I C C C C B B H H G G L L G G H H B B B H Q Q R R U U W U T X X V V X X T T Q Q Q H H G G A A G G H H H G G A A G G H H Q T T T T T Q Q R R R S S M M O M M E E F F F E E M S S R R R R J J K J J R R R R R U U T T T X Z P P Z Z Z X T T Q H H G G A A G L","R1 J1 J2 K2 J4 J1 D1 D4 C4 C3 I2 C1 C4 C3 C4 B4 B3 H3 H4 G4 G3 L2 L1 G1 G2 H2 H1 B1 B2 B3 H3 Q3 Q2 R2 R3 U3 U2 W4 U4 T4 X4 X3 V2 V1 X1 X2 T2 T1 Q1 Q2 Q1 H1 H4 G4 G1 A4 A3 G3 G2 H2 H3 H4 G4 G1 A4 A3 G3 G2 H2 H3 Q3 T3 T2 T1 T2 T1 Q1 Q2 R2 R3 R2 S2 S1 M1 M4 O2 M2 M1 E1 E2 F2 F3 F4 E4 E3 M3 S3 S4 R4 R1 R2 R1 J1 J2 K2 J4 J3 R3 R4 R3 R2 R3 U3 U4 T4 T1 T4 X4 Z1 P2 P3 Z2 Z1 Z2 X2 T2 T1 Q1 H1 H4 G4 G1 A4 A3 G3 L2","U1_R1 R1_J1 J1_J2 J2_K2 K2_J4 J4_J1 J1_D1 D1_D4 D4_C4 C4_C3 C3_I2 I2_C1 C1_C4 C4_C3 C3_C4 C4_B4 B4_B3 B3_H3 H3_H4 H4_G4 G4_G3 G3_L2 L2_L1 L1_G1 G1_G2 G2_H2 H2_H1 H1_B1 B1_B2 B2_B3 B3_H3 H3_Q3 Q3_Q2 Q2_R2 R2_R3 R3_U3 U3_U2 U2_W4 W4_U4 U4_T4 T4_X4 X4_X3 X3_V2 V2_V1 V1_X1 X1_X2 X2_T2 T2_T1 T1_Q1 Q1_Q2 Q2_Q1 Q1_H1 H1_H4 H4_G4 G4_G1 G1_A4 A4_A3 A3_G3 G3_G2 G2_H2 H2_H3 H3_H4 H4_G4 G4_G1 G1_A4 A4_A3 A3_G3 G3_G2 G2_H2 H2_H3 H3_Q3 Q3_T3 T3_T2 T2_T1 T1_T2 T2_T1 T1_Q1 Q1_Q2 Q2_R2 R2_R3 R3_R2 R2_S2 S2_S1 S1_M1 M1_M4 M4_O2 O2_M2 M2_M1 M1_E1 E1_E2 E2_F2 F2_F3 F3_F4 F4_E4 E4_E3 E3_M3 M3_S3 S3_S4 S4_R4 R4_R1 R1_R2 R2_R1 R1_J1 J1_J2 J2_K2 K2_J4 J4_J3 J3_R3 R3_R4 R4_R3 R3_R2 R2_R3 R3_U3 U3_U4 U4_T4 T4_T1 T1_T4 T4_X4 X4_Z1 Z1_P2 P2_P3 P3_Z2 Z2_Z1 Z1_Z2 Z2_X2 X2_T2 T2_T1 T1_Q1 Q1_H1 H1_H4 H4_G4 G4_G1 G1_A4 A4_A3 A3_G3 G3_L2",FALSE,NA,NA,"L","E",NA,137,68,69,1069.67647058824,488363,8924,2250120,2241196,NA,NA,NA,NA,NA,NA,NA,NA,NA,NA,NA,NA,NA,NA,1761757,224.75,9.4505290857179,NA,NA,NA
28,2018-04-04,"14:21:51",28,"2018-04-04","14:21:51",28,28,28,28,326,"MazeLearning-326-1",2,"ExploreProc",137,NA,NA,"L L G A A G G H H H G G G H H B B B B C C I C C D D J J K J J D D D D D D E F F F E E E D D D C C I C C B B H Q T T X X V V X X X X Z P P Z X T T T U W U U U U R R R R S S M M O M M E E F F F E D D D C C I C C D D J J K J J D D E F F F E D C C I C C B B B C D E E M S S S M M O M","L1 G1 A4 A3 G3 G2 H2 H3 H4 G4 G1 G2 H2 H1 B1 B2 B3 B2 C2 C3 I2 C1 C2 D2 D3 J3 J2 K2 J4 J1 D1 D2 D3 D4 D3 D2 E2 F2 F3 F4 E4 E3 E4 D4 D3 D4 C4 C3 I2 C1 C4 B4 B3 H3 Q3 T3 T4 X4 X3 V2 V1 X1 X2 X3 X4 Z1 P2 P3 Z2 X2 T2 T1 T2 U2 W4 U4 U1 U4 U1 R1 R4 R1 R2 S2 S1 M1 M4 O2 M2 M1 E1 E2 F2 F3 F4 E4 D4 D3 D4 C4 C3 I2 C1 C2 D2 D3 J3 J2 K2 J4 J1 D1 D2 E2 F2 F3 F4 E4 D4 C4 C3 I2 C1 C4 B4 B3 B2 C2 D2 E2 E3 M3 S3 S4 S1 M1 M4 O2 M2","L2_L1 L1_G1 G1_A4 A4_A3 A3_G3 G3_G2 G2_H2 H2_H3 H3_H4 H4_G4 G4_G1 G1_G2 G2_H2 H2_H1 H1_B1 B1_B2 B2_B3 B3_B2 B2_C2 C2_C3 C3_I2 I2_C1 C1_C2 C2_D2 D2_D3 D3_J3 J3_J2 J2_K2 K2_J4 J4_J1 J1_D1 D1_D2 D2_D3 D3_D4 D4_D3 D3_D2 D2_E2 E2_F2 F2_F3 F3_F4 F4_E4 E4_E3 E3_E4 E4_D4 D4_D3 D3_D4 D4_C4 C4_C3 C3_I2 I2_C1 C1_C4 C4_B4 B4_B3 B3_H3 H3_Q3 Q3_T3 T3_T4 T4_X4 X4_X3 X3_V2 V2_V1 V1_X1 X1_X2 X2_X3 X3_X4 X4_Z1 Z1_P2 P2_P3 P3_Z2 Z2_X2 X2_T2 T2_T1 T1_T2 T2_U2 U2_W4 W4_U4 U4_U1 U1_U4 U4_U1 U1_R1 R1_R4 R4_R1 R1_R2 R2_S2 S2_S1 S1_M1 M1_M4 M4_O2 O2_M2 M2_M1 M1_E1 E1_E2 E2_F2 F2_F3 F3_F4 F4_E4 E4_D4 D4_D3 D3_D4 D4_C4 C4_C3 C3_I2 I2_C1 C1_C2 C2_D2 D2_D3 D3_J3 J3_J2 J2_K2 K2_J4 J4_J1 J1_D1 D1_D2 D2_E2 E2_F2 F2_F3 F3_F4 F4_E4 E4_D4 D4_C4 C4_C3 C3_I2 I2_C1 C1_C4 C4_B4 B4_B3 B3_B2 B2_C2 C2_D2 D2_E2 E2_E3 E3_M3 M3_S3 S3_S4 S4_S1 S1_M1 M1_M4 M4_O2 O2_M2",FALSE,NA,NA,"M","E",NA,140,70,70,1057.51079136691,996269,519283,2250120,1730837,NA,NA,NA,NA,NA,NA,NA,NA,NA,NA,NA,NA,NA,NA,1253851,213.75,11.0707949127423,NA,NA,NA
29,2018-04-09,"14:42:41",29,"2018-04-09","14:42:41",29,29,29,29,327,"MazeLearning-327-1",1,"ExploreProc",1,NA,NA,"E E E E E D D D D D C C C B B B B B C D E F F F E E M S S S M M O M M S S R R R R R R U U W U T T T X X V V X Z P P Z X T T Q Q R R R R J J K J J R R R R Q Q H H G G G G L L G G H H Q T T T T X X V V X Z P P Z X X V V X X T T Q Q R R R R J J K J J D D C C I C C D","E3 E2 E3 E4 D4 D3 D2 D3 D4 C4 C3 C4 B4 B3 B2 B3 B2 C2 D2 E2 F2 F3 F4 E4 E3 M3 S3 S4 S1 M1 M4 O2 M2 M3 S3 S4 R4 R3 R4 R1 R4 R3 U3 U2 W4 U4 T4 T1 T4 X4 X3 V2 V1 X1 Z1 P2 P3 Z2 X2 T2 T1 Q1 Q2 R2 R3 R2 R1 J1 J2 K2 J4 J3 R3 R2 R3 R4 Q4 Q1 H1 H4 G4 G3 G2 G3 L2 L1 G1 G2 H2 H3 Q3 T3 T2 T1 T4 X4 X3 V2 V1 X1 Z1 P2 P3 Z2 X2 X3 V2 V1 X1 X2 T2 T1 Q1 Q2 R2 R3 R2 R1 J1 J2 K2 J4 J1 D1 D4 C4 C3 I2 C1 C2 D2","E4_E3 E3_E2 E2_E3 E3_E4 E4_D4 D4_D3 D3_D2 D2_D3 D3_D4 D4_C4 C4_C3 C3_C4 C4_B4 B4_B3 B3_B2 B2_B3 B3_B2 B2_C2 C2_D2 D2_E2 E2_F2 F2_F3 F3_F4 F4_E4 E4_E3 E3_M3 M3_S3 S3_S4 S4_S1 S1_M1 M1_M4 M4_O2 O2_M2 M2_M3 M3_S3 S3_S4 S4_R4 R4_R3 R3_R4 R4_R1 R1_R4 R4_R3 R3_U3 U3_U2 U2_W4 W4_U4 U4_T4 T4_T1 T1_T4 T4_X4 X4_X3 X3_V2 V2_V1 V1_X1 X1_Z1 Z1_P2 P2_P3 P3_Z2 Z2_X2 X2_T2 T2_T1 T1_Q1 Q1_Q2 Q2_R2 R2_R3 R3_R2 R2_R1 R1_J1 J1_J2 J2_K2 K2_J4 J4_J3 J3_R3 R3_R2 R2_R3 R3_R4 R4_Q4 Q4_Q1 Q1_H1 H1_H4 H4_G4 G4_G3 G3_G2 G2_G3 G3_L2 L2_L1 L1_G1 G1_G2 G2_H2 H2_H3 H3_Q3 Q3_T3 T3_T2 T2_T1 T1_T4 T4_X4 X4_X3 X3_V2 V2_V1 V1_X1 X1_Z1 Z1_P2 P2_P3 P3_Z2 Z2_X2 X2_X3 X3_V2 V2_V1 V1_X1 X1_X2 X2_T2 T2_T1 T1_Q1 Q1_Q2 Q2_R2 R2_R3 R3_R2 R2_R1 R1_J1 J1_J2 J2_K2 K2_J4 J4_J1 J1_D1 D1_D4 D4_C4 C4_C3 C3_I2 I2_C1 C1_C2 C2_D2",FALSE,NA,NA,"D","E",NA,132,61,71,1112.98473282443,497412,17773,2301557,2283784,NA,NA,NA,NA,NA,NA,NA,NA,NA,NA,NA,NA,NA,NA,1804145,193.5,3.5,NA,NA,NA
30,2018-04-09,"14:42:41",30,"2018-04-09","14:42:41",30,30,30,30,327,"MazeLearning-327-1",2,"ExploreProc",132,NA,NA,"D E E M M O M M S S R R U U W U T T T X X V V X Z P P Z X X V V X X T T Q Q R R R R R S S M M O M M M M S S R R J J K J J D D C C I C C C C D E E E F F F E E E F F N N F F E E M M O M M S S R R R R U U U U T T Q Q R R R R J J K J J D D C C I C C B B H H G G L L G A A","E2 E3 M3 M4 O2 M2 M3 S3 S4 R4 R3 U3 U2 W4 U4 T4 T1 T4 X4 X3 V2 V1 X1 Z1 P2 P3 Z2 X2 X3 V2 V1 X1 X2 T2 T1 Q1 Q2 R2 R1 R4 R3 R2 S2 S1 M1 M4 O2 M2 M1 M4 M3 S3 S4 R4 R1 J1 J2 K2 J4 J1 D1 D4 C4 C3 I2 C1 C4 C3 C2 D2 E2 E3 E2 F2 F3 F4 E4 E3 E2 F2 F3 N3 N1 F1 F4 E4 E3 M3 M4 O2 M2 M3 S3 S4 R4 R1 R4 R3 U3 U2 U1 U4 T4 T1 Q1 Q2 R2 R3 R2 R1 J1 J2 K2 J4 J1 D1 D4 C4 C3 I2 C1 C4 B4 B3 H3 H4 G4 G3 L2 L1 G1 A4 A3","D2_E2 E2_E3 E3_M3 M3_M4 M4_O2 O2_M2 M2_M3 M3_S3 S3_S4 S4_R4 R4_R3 R3_U3 U3_U2 U2_W4 W4_U4 U4_T4 T4_T1 T1_T4 T4_X4 X4_X3 X3_V2 V2_V1 V1_X1 X1_Z1 Z1_P2 P2_P3 P3_Z2 Z2_X2 X2_X3 X3_V2 V2_V1 V1_X1 X1_X2 X2_T2 T2_T1 T1_Q1 Q1_Q2 Q2_R2 R2_R1 R1_R4 R4_R3 R3_R2 R2_S2 S2_S1 S1_M1 M1_M4 M4_O2 O2_M2 M2_M1 M1_M4 M4_M3 M3_S3 S3_S4 S4_R4 R4_R1 R1_J1 J1_J2 J2_K2 K2_J4 J4_J1 J1_D1 D1_D4 D4_C4 C4_C3 C3_I2 I2_C1 C1_C4 C4_C3 C3_C2 C2_D2 D2_E2 E2_E3 E3_E2 E2_F2 F2_F3 F3_F4 F4_E4 E4_E3 E3_E2 E2_F2 F2_F3 F3_N3 N3_N1 N1_F1 F1_F4 F4_E4 E4_E3 E3_M3 M3_M4 M4_O2 O2_M2 M2_M3 M3_S3 S3_S4 S4_R4 R4_R1 R1_R4 R4_R3 R3_U3 U3_U2 U2_U1 U1_U4 U4_T4 T4_T1 T1_Q1 Q1_Q2 Q2_R2 R2_R3 R3_R2 R2_R1 R1_J1 J1_J2 J2_K2 K2_J4 J4_J1 J1_D1 D1_D4 D4_C4 C4_C3 C3_I2 I2_C1 C1_C4 C4_B4 B4_B3 B3_H3 H3_H4 H4_G4 G4_G3 G3_L2 L2_L1 L1_G1 G1_A4 A4_A3",FALSE,NA,NA,"A","S",NA,134,65,69,1033.73684210526,1014252,535426,2301557,1766131,NA,NA,NA,NA,NA,NA,NA,NA,NA,NA,NA,NA,NA,NA,1287305,215,7.5,NA,NA,NA
31,2018-04-17,"09:33:36",31,"2018-04-17","09:33:36",31,31,31,31,328,"MazeLearning-328-1",1,"ExploreProc",1,NA,NA,"E D C C C B B H H G G A A G L L G G H H Q T T X X V V X X T U W U U R R S S M E E F F F E E M S S R R J J K J J D D E E M S S R R U U W U U R R R R R R S S M M O M M M M E E E E F F F E D D J J K J J R R Q Q H H G G G G L L G A A G G H H H H H H Q Q R R R R R Q Q T T T T T T X X V V X Z P P Z X T","D4 C4 C3 C4 B4 B3 H3 H4 G4 G1 A4 A3 G3 L2 L1 G1 G2 H2 H3 Q3 T3 T4 X4 X3 V2 V1 X1 X2 T2 U2 W4 U4 U1 R1 R2 S2 S1 M1 E1 E2 F2 F3 F4 E4 E3 M3 S3 S4 R4 R1 J1 J2 K2 J4 J1 D1 D2 E2 E3 M3 S3 S4 R4 R3 U3 U2 W4 U4 U1 R1 R2 R1 R4 R1 R2 S2 S1 M1 M4 O2 M2 M3 M4 M1 E1 E4 E3 E2 F2 F3 F4 E4 D4 D3 J3 J2 K2 J4 J3 R3 R4 Q4 Q1 H1 H4 G4 G1 G2 G3 L2 L1 G1 A4 A3 G3 G2 H2 H3 H4 H1 H4 H3 Q3 Q2 R2 R1 R2 R3 R4 Q4 Q3 T3 T4 T1 T2 T1 T4 X4 X3 V2 V1 X1 Z1 P2 P3 Z2 X2 T2","E4_D4 D4_C4 C4_C3 C3_C4 C4_B4 B4_B3 B3_H3 H3_H4 H4_G4 G4_G1 G1_A4 A4_A3 A3_G3 G3_L2 L2_L1 L1_G1 G1_G2 G2_H2 H2_H3 H3_Q3 Q3_T3 T3_T4 T4_X4 X4_X3 X3_V2 V2_V1 V1_X1 X1_X2 X2_T2 T2_U2 U2_W4 W4_U4 U4_U1 U1_R1 R1_R2 R2_S2 S2_S1 S1_M1 M1_E1 E1_E2 E2_F2 F2_F3 F3_F4 F4_E4 E4_E3 E3_M3 M3_S3 S3_S4 S4_R4 R4_R1 R1_J1 J1_J2 J2_K2 K2_J4 J4_J1 J1_D1 D1_D2 D2_E2 E2_E3 E3_M3 M3_S3 S3_S4 S4_R4 R4_R3 R3_U3 U3_U2 U2_W4 W4_U4 U4_U1 U1_R1 R1_R2 R2_R1 R1_R4 R4_R1 R1_R2 R2_S2 S2_S1 S1_M1 M1_M4 M4_O2 O2_M2 M2_M3 M3_M4 M4_M1 M1_E1 E1_E4 E4_E3 E3_E2 E2_F2 F2_F3 F3_F4 F4_E4 E4_D4 D4_D3 D3_J3 J3_J2 J2_K2 K2_J4 J4_J3 J3_R3 R3_R4 R4_Q4 Q4_Q1 Q1_H1 H1_H4 H4_G4 G4_G1 G1_G2 G2_G3 G3_L2 L2_L1 L1_G1 G1_A4 A4_A3 A3_G3 G3_G2 G2_H2 H2_H3 H3_H4 H4_H1 H1_H4 H4_H3 H3_Q3 Q3_Q2 Q2_R2 R2_R1 R1_R2 R2_R3 R3_R4 R4_Q4 Q4_Q3 Q3_T3 T3_T4 T4_T1 T1_T2 T2_T1 T1_T4 T4_X4 X4_X3 X3_V2 V2_V1 V1_X1 X1_Z1 Z1_P2 P2_P3 P3_Z2 Z2_X2 X2_T2",FALSE,NA,NA,"T","E",NA,149,72,77,742.412162162162,496538,15756,NA,NA,NA,NA,NA,NA,NA,NA,NA,NA,NA,NA,NA,NA,NA,NA,NA,239.75,14.2148689758295,NA,NA,NA
32,2018-04-17,"09:33:36",32,"2018-04-17","09:33:36",32,32,32,32,328,"MazeLearning-328-1",2,"ExploreProc",149,NA,NA,"T T Q Q R R R R J J K J J J J J J D D C C I C C C C C C C C B B H H G G G G L L G A A G G G G G G H H Q Q R R R R R Q Q T T X Z P P Z X X V V X X T T Q Q R R U U T T T T Q Q R S S M M O M M M M E E F F F E E E D D D C C I C C B B H H G G G G L L G A A G G H H H H B B C C I","T1 Q1 Q2 R2 R3 R2 R1 J1 J2 K2 J4 J1 J2 J3 J2 J1 D1 D4 C4 C3 I2 C1 C2 C3 C4 C3 C2 C3 C4 B4 B3 H3 H4 G4 G1 G2 G3 L2 L1 G1 A4 A3 G3 G2 G1 G2 G3 G2 H2 H3 Q3 Q2 R2 R1 R2 R3 R4 Q4 Q3 T3 T4 X4 Z1 P2 P3 Z2 X2 X3 V2 V1 X1 X2 T2 T1 Q1 Q2 R2 R3 U3 U4 T4 T1 T4 T1 Q1 Q2 R2 S2 S1 M1 M4 O2 M2 M3 M4 M1 E1 E2 F2 F3 F4 E4 E3 E4 D4 D3 D4 C4 C3 I2 C1 C4 B4 B3 H3 H4 G4 G1 G2 G3 L2 L1 G1 A4 A3 G3 G2 H2 H3 H4 H1 B1 B2 C2 C3 I2","T2_T1 T1_Q1 Q1_Q2 Q2_R2 R2_R3 R3_R2 R2_R1 R1_J1 J1_J2 J2_K2 K2_J4 J4_J1 J1_J2 J2_J3 J3_J2 J2_J1 J1_D1 D1_D4 D4_C4 C4_C3 C3_I2 I2_C1 C1_C2 C2_C3 C3_C4 C4_C3 C3_C2 C2_C3 C3_C4 C4_B4 B4_B3 B3_H3 H3_H4 H4_G4 G4_G1 G1_G2 G2_G3 G3_L2 L2_L1 L1_G1 G1_A4 A4_A3 A3_G3 G3_G2 G2_G1 G1_G2 G2_G3 G3_G2 G2_H2 H2_H3 H3_Q3 Q3_Q2 Q2_R2 R2_R1 R1_R2 R2_R3 R3_R4 R4_Q4 Q4_Q3 Q3_T3 T3_T4 T4_X4 X4_Z1 Z1_P2 P2_P3 P3_Z2 Z2_X2 X2_X3 X3_V2 V2_V1 V1_X1 X1_X2 X2_T2 T2_T1 T1_Q1 Q1_Q2 Q2_R2 R2_R3 R3_U3 U3_U4 U4_T4 T4_T1 T1_T4 T4_T1 T1_Q1 Q1_Q2 Q2_R2 R2_S2 S2_S1 S1_M1 M1_M4 M4_O2 O2_M2 M2_M3 M3_M4 M4_M1 M1_E1 E1_E2 E2_F2 F2_F3 F3_F4 F4_E4 E4_E3 E3_E4 E4_D4 D4_D3 D3_D4 D4_C4 C4_C3 C3_I2 I2_C1 C1_C4 C4_B4 B4_B3 B3_H3 H3_H4 H4_G4 G4_G1 G1_G2 G2_G3 G3_L2 L2_L1 L1_G1 G1_A4 A4_A3 A3_G3 G3_G2 G2_H2 H2_H3 H3_H4 H4_H1 H1_B1 B1_B2 B2_C2 C2_C3 C3_I2",FALSE,NA,NA,"I","E",NA,137,57,80,1294.49264705882,1000587,518551,NA,NA,NA,NA,NA,NA,NA,NA,NA,NA,NA,NA,NA,NA,NA,NA,NA,179.75,8.87764045228235,NA,NA,NA
33,2018-04-24,"09:08:11",33,"2018-04-24","09:08:11",33,33,33,33,330,"MazeLearning-330-1",1,"ExploreProc",1,NA,NA,"T U U R R R U U U R R R J J K J J D D E E E F F F E E M S S S M M O M M M M E E D C C I C C C C B B B B B B H H G G G G A A G G G L L G G G G G G H H H H H G G G G L L G G H H Q Q Q Q Q T T U U U T T T X X X Z P P Z X X V V X X T T T U W U T X X V V X Z P P Z","U2 U1 R1 R2 R3 U3 U2 U1 R1 R4 R1 J1 J2 K2 J4 J1 D1 D2 E2 E3 E2 F2 F3 F4 E4 E3 M3 S3 S4 S1 M1 M4 O2 M2 M3 M4 M1 E1 E4 D4 C4 C3 I2 C1 C4 C3 C4 B4 B3 B2 B3 B2 B3 H3 H4 G4 G1 G2 G1 A4 A3 G3 G2 G3 L2 L1 G1 G2 G1 G2 G3 G2 H2 H3 H4 H1 H4 G4 G1 G2 G3 L2 L1 G1 G2 H2 H3 Q3 Q2 Q1 Q2 Q3 T3 T2 U2 U1 U4 T4 T1 T4 X4 X3 X4 Z1 P2 P3 Z2 X2 X3 V2 V1 X1 X2 T2 T1 T2 U2 W4 U4 T4 X4 X3 V2 V1 X1 Z1 P2 P3 Z2","T2_U2 U2_U1 U1_R1 R1_R2 R2_R3 R3_U3 U3_U2 U2_U1 U1_R1 R1_R4 R4_R1 R1_J1 J1_J2 J2_K2 K2_J4 J4_J1 J1_D1 D1_D2 D2_E2 E2_E3 E3_E2 E2_F2 F2_F3 F3_F4 F4_E4 E4_E3 E3_M3 M3_S3 S3_S4 S4_S1 S1_M1 M1_M4 M4_O2 O2_M2 M2_M3 M3_M4 M4_M1 M1_E1 E1_E4 E4_D4 D4_C4 C4_C3 C3_I2 I2_C1 C1_C4 C4_C3 C3_C4 C4_B4 B4_B3 B3_B2 B2_B3 B3_B2 B2_B3 B3_H3 H3_H4 H4_G4 G4_G1 G1_G2 G2_G1 G1_A4 A4_A3 A3_G3 G3_G2 G2_G3 G3_L2 L2_L1 L1_G1 G1_G2 G2_G1 G1_G2 G2_G3 G3_G2 G2_H2 H2_H3 H3_H4 H4_H1 H1_H4 H4_G4 G4_G1 G1_G2 G2_G3 G3_L2 L2_L1 L1_G1 G1_G2 G2_H2 H2_H3 H3_Q3 Q3_Q2 Q2_Q1 Q1_Q2 Q2_Q3 Q3_T3 T3_T2 T2_U2 U2_U1 U1_U4 U4_T4 T4_T1 T1_T4 T4_X4 X4_X3 X3_X4 X4_Z1 Z1_P2 P2_P3 P3_Z2 Z2_X2 X2_X3 X3_V2 V2_V1 V1_X1 X1_X2 X2_T2 T2_T1 T1_T2 T2_U2 U2_W4 W4_U4 U4_T4 T4_X4 X4_X3 X3_V2 V2_V1 V1_X1 X1_Z1 Z1_P2 P2_P3 P3_Z2",FALSE,NA,NA,"Z","E",NA,130,55,75,1323.46511627907,492799,13623,2262395,2248772,NA,NA,NA,NA,NA,NA,NA,NA,NA,NA,NA,NA,NA,NA,1769596,176.25,2.75,NA,NA,NA
34,2018-04-24,"09:08:11",34,"2018-04-24","09:08:11",34,34,34,34,330,"MazeLearning-330-1",2,"ExploreProc",130,NA,NA,"Z Z P P Z X X V V X X T U W U T X X V V X Z P P Z X T U U R R R R S S M M O M M M M E E E E F F N N F F E D D J J K J J J J J J D D C C I C C C C C C B B H Q Q Q H H G G A A G L L G G H H H H Q T T X Z P P Z X X V V X Z P P Z X T T T U W U U R R R R R R S S M M O M M M","Z1 P2 P3 Z2 X2 X3 V2 V1 X1 X2 T2 U2 W4 U4 T4 X4 X3 V2 V1 X1 Z1 P2 P3 Z2 X2 T2 U2 U1 R1 R4 R3 R2 S2 S1 M1 M4 O2 M2 M3 M4 M1 E1 E4 E3 E2 F2 F3 N3 N1 F1 F4 E4 D4 D3 J3 J2 K2 J4 J1 J2 J3 J2 J1 D1 D4 C4 C3 I2 C1 C4 C3 C2 C3 C4 B4 B3 H3 Q3 Q2 Q1 H1 H4 G4 G1 A4 A3 G3 L2 L1 G1 G2 H2 H1 H4 H3 Q3 T3 T4 X4 Z1 P2 P3 Z2 X2 X3 V2 V1 X1 Z1 P2 P3 Z2 X2 T2 T1 T2 U2 W4 U4 U1 R1 R2 R3 R4 R1 R2 S2 S1 M1 M4 O2 M2 M3 M4","Z2_Z1 Z1_P2 P2_P3 P3_Z2 Z2_X2 X2_X3 X3_V2 V2_V1 V1_X1 X1_X2 X2_T2 T2_U2 U2_W4 W4_U4 U4_T4 T4_X4 X4_X3 X3_V2 V2_V1 V1_X1 X1_Z1 Z1_P2 P2_P3 P3_Z2 Z2_X2 X2_T2 T2_U2 U2_U1 U1_R1 R1_R4 R4_R3 R3_R2 R2_S2 S2_S1 S1_M1 M1_M4 M4_O2 O2_M2 M2_M3 M3_M4 M4_M1 M1_E1 E1_E4 E4_E3 E3_E2 E2_F2 F2_F3 F3_N3 N3_N1 N1_F1 F1_F4 F4_E4 E4_D4 D4_D3 D3_J3 J3_J2 J2_K2 K2_J4 J4_J1 J1_J2 J2_J3 J3_J2 J2_J1 J1_D1 D1_D4 D4_C4 C4_C3 C3_I2 I2_C1 C1_C4 C4_C3 C3_C2 C2_C3 C3_C4 C4_B4 B4_B3 B3_H3 H3_Q3 Q3_Q2 Q2_Q1 Q1_H1 H1_H4 H4_G4 G4_G1 G1_A4 A4_A3 A3_G3 G3_L2 L2_L1 L1_G1 G1_G2 G2_H2 H2_H1 H1_H4 H4_H3 H3_Q3 Q3_T3 T3_T4 T4_X4 X4_Z1 Z1_P2 P2_P3 P3_Z2 Z2_X2 X2_X3 X3_V2 V2_V1 V1_X1 X1_Z1 Z1_P2 P2_P3 P3_Z2 Z2_X2 X2_T2 T2_T1 T1_T2 T2_U2 U2_W4 W4_U4 U4_U1 U1_R1 R1_R2 R2_R3 R3_R4 R4_R1 R1_R2 R2_S2 S2_S1 S1_M1 M1_M4 M4_O2 O2_M2 M2_M3 M3_M4",FALSE,NA,NA,"M","W",NA,135,69,66,952.567164179104,992069,512426,2262395,1749969,NA,NA,NA,NA,NA,NA,NA,NA,NA,NA,NA,NA,NA,NA,1270326,212.75,12.8281916106675,NA,NA,NA
35,2018-07-23,"14:48:43",35,"2018-07-23","14:48:43",35,35,35,35,332,"MazeLearning-332-1",1,"ExploreProc",1,NA,NA,"U U U U T T Q H H G G L L G G H H Q Q Q Q R R R R R S S M M M M O M M E E F F N N F F F F E E M M M E E D D J R R R U U T T Q Q R R U U W U T T Q H H G G A A G L L G G H H H H B B C C I C C D E E M M O M M E E E E F F F E D D D C B B H Q Q","U4 U1 U4 T4 T1 Q1 H1 H4 G4 G3 L2 L1 G1 G2 H2 H3 Q3 Q2 Q3 Q2 R2 R3 R4 R3 R2 S2 S1 M1 M4 M3 M4 O2 M2 M1 E1 E2 F2 F3 N3 N1 F1 F4 F3 F4 E4 E3 M3 M4 M1 E1 E4 D4 D3 J3 R3 R4 R3 U3 U4 T4 T1 Q1 Q2 R2 R3 U3 U2 W4 U4 T4 T1 Q1 H1 H4 G4 G1 A4 A3 G3 L2 L1 G1 G2 H2 H3 H4 H1 B1 B2 C2 C3 I2 C1 C2 D2 E2 E3 M3 M4 O2 M2 M1 E1 E4 E3 E2 F2 F3 F4 E4 D4 D3 D4 C4 B4 B3 H3 Q3 Q2","U1_U4 U4_U1 U1_U4 U4_T4 T4_T1 T1_Q1 Q1_H1 H1_H4 H4_G4 G4_G3 G3_L2 L2_L1 L1_G1 G1_G2 G2_H2 H2_H3 H3_Q3 Q3_Q2 Q2_Q3 Q3_Q2 Q2_R2 R2_R3 R3_R4 R4_R3 R3_R2 R2_S2 S2_S1 S1_M1 M1_M4 M4_M3 M3_M4 M4_O2 O2_M2 M2_M1 M1_E1 E1_E2 E2_F2 F2_F3 F3_N3 N3_N1 N1_F1 F1_F4 F4_F3 F3_F4 F4_E4 E4_E3 E3_M3 M3_M4 M4_M1 M1_E1 E1_E4 E4_D4 D4_D3 D3_J3 J3_R3 R3_R4 R4_R3 R3_U3 U3_U4 U4_T4 T4_T1 T1_Q1 Q1_Q2 Q2_R2 R2_R3 R3_U3 U3_U2 U2_W4 W4_U4 U4_T4 T4_T1 T1_Q1 Q1_H1 H1_H4 H4_G4 G4_G1 G1_A4 A4_A3 A3_G3 G3_L2 L2_L1 L1_G1 G1_G2 G2_H2 H2_H3 H3_H4 H4_H1 H1_B1 B1_B2 B2_C2 C2_C3 C3_I2 I2_C1 C1_C2 C2_D2 D2_E2 E2_E3 E3_M3 M3_M4 M4_O2 O2_M2 M2_M1 M1_E1 E1_E4 E4_E3 E3_E2 E2_F2 F2_F3 F3_F4 F4_E4 E4_D4 D4_D3 D3_D4 D4_C4 C4_B4 B4_B3 B3_H3 H3_Q3 Q3_Q2",FALSE,NA,NA,"Q","E",NA,120,56,64,1063.55462184874,516926,35009,2257264,2222255,NA,NA,NA,NA,NA,NA,NA,NA,NA,NA,NA,NA,NA,NA,1740338,207.25,5.85768725692999,NA,NA,NA
36,2018-07-23,"14:48:43",36,"2018-07-23","14:48:43",36,36,36,36,332,"MazeLearning-332-1",2,"ExploreProc",120,NA,NA,"Q R R U U T T T X X V V X X T T T U U U U R R R J J K J J J J D D E E M M M E E F F F E D D D C C C C I C C C I C C B B H Q T T T T X X V V X X X V V X Z P P Z X X V V X X T T Q Q R S S M M O M M E E D D J J J R R R R R U U U U W U T T Q H H G G L L G G H H H","R2 R3 U3 U4 T4 T1 T4 X4 X3 V2 V1 X1 X2 T2 T1 T2 U2 U1 U2 U1 R1 R2 R1 J1 J2 K2 J4 J3 J2 J1 D1 D2 E2 E3 M3 M4 M1 E1 E2 F2 F3 F4 E4 D4 D3 D4 C4 C3 C2 C3 I2 C1 C4 C3 I2 C1 C4 B4 B3 H3 Q3 T3 T4 T1 T4 X4 X3 V2 V1 X1 X2 X3 V2 V1 X1 Z1 P2 P3 Z2 X2 X3 V2 V1 X1 X2 T2 T1 Q1 Q2 R2 S2 S1 M1 M4 O2 M2 M1 E1 E4 D4 D3 J3 J2 J3 R3 R2 R3 R4 R3 U3 U4 U1 U2 W4 U4 T4 T1 Q1 H1 H4 G4 G3 L2 L1 G1 G2 H2 H3 H4","Q2_R2 R2_R3 R3_U3 U3_U4 U4_T4 T4_T1 T1_T4 T4_X4 X4_X3 X3_V2 V2_V1 V1_X1 X1_X2 X2_T2 T2_T1 T1_T2 T2_U2 U2_U1 U1_U2 U2_U1 U1_R1 R1_R2 R2_R1 R1_J1 J1_J2 J2_K2 K2_J4 J4_J3 J3_J2 J2_J1 J1_D1 D1_D2 D2_E2 E2_E3 E3_M3 M3_M4 M4_M1 M1_E1 E1_E2 E2_F2 F2_F3 F3_F4 F4_E4 E4_D4 D4_D3 D3_D4 D4_C4 C4_C3 C3_C2 C2_C3 C3_I2 I2_C1 C1_C4 C4_C3 C3_I2 I2_C1 C1_C4 C4_B4 B4_B3 B3_H3 H3_Q3 Q3_T3 T3_T4 T4_T1 T1_T4 T4_X4 X4_X3 X3_V2 V2_V1 V1_X1 X1_X2 X2_X3 X3_V2 V2_V1 V1_X1 X1_Z1 Z1_P2 P2_P3 P3_Z2 Z2_X2 X2_X3 X3_V2 V2_V1 V1_X1 X1_X2 X2_T2 T2_T1 T1_Q1 Q1_Q2 Q2_R2 R2_S2 S2_S1 S1_M1 M1_M4 M4_O2 O2_M2 M2_M1 M1_E1 E1_E4 E4_D4 D4_D3 D3_J3 J3_J2 J2_J3 J3_R3 R3_R2 R2_R3 R3_R4 R4_R3 R3_U3 U3_U4 U4_U1 U1_U2 U2_W4 W4_U4 U4_T4 T4_T1 T1_Q1 Q1_H1 H1_H4 H4_G4 G4_G3 G3_L2 L2_L1 L1_G1 G1_G2 G2_H2 H2_H3 H3_H4",FALSE,NA,NA,"H","W",NA,130,60,70,920.899224806202,1024030,544833,2257264,1712431,NA,NA,NA,NA,NA,NA,NA,NA,NA,NA,NA,NA,NA,NA,1233234,194.75,5.75,NA,NA,NA
37,2018-08-02,"13:02:57",37,"2018-08-02","13:02:57",37,37,37,37,333,"MazeLearning-333-1",1,"ExploreProc",1,NA,NA,"U R R S S M E E F F N N F F E D D J R U U T X X X X V Y Y V X Z P P Z X T T Q H H G G A A G L L G A A G G H H Q Q R R R S S M M O M M E E E E F F F E D C C I C C B B H H G G A A G L L G G H H Q T T X X V V X Z P P Z X X X T T T U W U U R J J K J J D D E E M M O M M S S R R R R R Q Q H B","R1 R2 S2 S1 M1 E1 E2 F2 F3 N3 N1 F1 F4 E4 D4 D3 J3 R3 U3 U4 T4 X4 X3 X2 X3 V2 Y3 Y4 V1 X1 Z1 P2 P3 Z2 X2 T2 T1 Q1 H1 H4 G4 G1 A4 A3 G3 L2 L1 G1 A4 A3 G3 G2 H2 H3 Q3 Q2 R2 R1 R2 S2 S1 M1 M4 O2 M2 M1 E1 E4 E3 E2 F2 F3 F4 E4 D4 C4 C3 I2 C1 C4 B4 B3 H3 H4 G4 G1 A4 A3 G3 L2 L1 G1 G2 H2 H3 Q3 T3 T4 X4 X3 V2 V1 X1 Z1 P2 P3 Z2 X2 X3 X2 T2 T1 T2 U2 W4 U4 U1 R1 J1 J2 K2 J4 J1 D1 D2 E2 E3 M3 M4 O2 M2 M3 S3 S4 R4 R1 R4 R3 R4 Q4 Q1 H1 B1","U1_R1 R1_R2 R2_S2 S2_S1 S1_M1 M1_E1 E1_E2 E2_F2 F2_F3 F3_N3 N3_N1 N1_F1 F1_F4 F4_E4 E4_D4 D4_D3 D3_J3 J3_R3 R3_U3 U3_U4 U4_T4 T4_X4 X4_X3 X3_X2 X2_X3 X3_V2 V2_Y3 Y2_Y4 Y4_V1 V1_X1 X1_Z1 Z1_P2 P2_P3 P3_Z2 Z2_X2 X2_T2 T2_T1 T1_Q1 Q1_H1 H1_H4 H4_G4 G4_G1 G1_A4 A4_A3 A3_G3 G3_L2 L2_L1 L1_G1 G1_A4 A4_A3 A3_G3 G3_G2 G2_H2 H2_H3 H3_Q3 Q3_Q2 Q2_R2 R2_R1 R1_R2 R2_S2 S2_S1 S1_M1 M1_M4 M4_O2 O2_M2 M2_M1 M1_E1 E1_E4 E4_E3 E3_E2 E2_F2 F2_F3 F3_F4 F4_E4 E4_D4 D4_C4 C4_C3 C3_I2 I2_C1 C1_C4 C4_B4 B4_B3 B3_H3 H3_H4 H4_G4 G4_G1 G1_A4 A4_A3 A3_G3 G3_L2 L2_L1 L1_G1 G1_G2 G2_H2 H2_H3 H3_Q3 Q3_T3 T3_T4 T4_X4 X4_X3 X3_V2 V2_V1 V1_X1 X1_Z1 Z1_P2 P2_P3 P3_Z2 Z2_X2 X2_X3 X3_X2 X2_T2 T2_T1 T1_T2 T2_U2 U2_W4 W4_U4 U4_U1 U1_R1 R1_J1 J1_J2 J2_K2 K2_J4 J4_J1 J1_D1 D1_D2 D2_E2 E2_E3 E3_M3 M3_M4 M4_O2 O2_M2 M2_M3 M3_S3 S3_S4 S4_R4 R4_R1 R1_R4 R4_R3 R3_R4 R4_Q4 Q4_Q1 Q1_H1 H1_B1",FALSE,NA,NA,"B","N",NA,144,81,63,696.384615384615,490670,11993,2352661,2340668,NA,NA,NA,NA,NA,NA,NA,NA,NA,NA,NA,NA,NA,NA,1861991,265.75,12.5822295321616,NA,NA,NA
38,2018-08-02,"13:02:57",38,"2018-08-02","13:02:57",38,38,38,38,333,"MazeLearning-333-1",2,"ExploreProc",144,NA,NA,"B B C C I C C B B H H G G A A G G G L L G G H H Q T T X X X Z P P Z X X V V X X T U W U U U U U U R J D D E E M M O M M E E E E F F F E D C C I C C C C B B H H G G A A G L L G G H H Q T T X Z P P Z X T T Q H H G G L L G G H H B B C D D J J K J J R R R R S S M M O M M S S R R R R R R U","B2 C2 C3 I2 C1 C4 B4 B3 H3 H4 G4 G1 A4 A3 G3 G2 G3 L2 L1 G1 G2 H2 H3 Q3 T3 T4 X4 X3 X4 Z1 P2 P3 Z2 X2 X3 V2 V1 X1 X2 T2 U2 W4 U4 U1 U4 U1 U2 U1 R1 J1 D1 D2 E2 E3 M3 M4 O2 M2 M1 E1 E2 E3 E2 F2 F3 F4 E4 D4 C4 C3 I2 C1 C2 C3 C4 B4 B3 H3 H4 G4 G1 A4 A3 G3 L2 L1 G1 G2 H2 H3 Q3 T3 T4 X4 Z1 P2 P3 Z2 X2 T2 T1 Q1 H1 H4 G4 G3 L2 L1 G1 G2 H2 H1 B1 B2 C2 D2 D3 J3 J2 K2 J4 J3 R3 R4 R1 R2 S2 S1 M1 M4 O2 M2 M3 S3 S4 R4 R1 R4 R3 R2 R3 U3","B1_B2 B2_C2 C2_C3 C3_I2 I2_C1 C1_C4 C4_B4 B4_B3 B3_H3 H3_H4 H4_G4 G4_G1 G1_A4 A4_A3 A3_G3 G3_G2 G2_G3 G3_L2 L2_L1 L1_G1 G1_G2 G2_H2 H2_H3 H3_Q3 Q3_T3 T3_T4 T4_X4 X4_X3 X3_X4 X4_Z1 Z1_P2 P2_P3 P3_Z2 Z2_X2 X2_X3 X3_V2 V2_V1 V1_X1 X1_X2 X2_T2 T2_U2 U2_W4 W4_U4 U4_U1 U1_U4 U4_U1 U1_U2 U2_U1 U1_R1 R1_J1 J1_D1 D1_D2 D2_E2 E2_E3 E3_M3 M3_M4 M4_O2 O2_M2 M2_M1 M1_E1 E1_E2 E2_E3 E3_E2 E2_F2 F2_F3 F3_F4 F4_E4 E4_D4 D4_C4 C4_C3 C3_I2 I2_C1 C1_C2 C2_C3 C3_C4 C4_B4 B4_B3 B3_H3 H3_H4 H4_G4 G4_G1 G1_A4 A4_A3 A3_G3 G3_L2 L2_L1 L1_G1 G1_G2 G2_H2 H2_H3 H3_Q3 Q3_T3 T3_T4 T4_X4 X4_Z1 Z1_P2 P2_P3 P3_Z2 Z2_X2 X2_T2 T2_T1 T1_Q1 Q1_H1 H1_H4 H4_G4 G4_G3 G3_L2 L2_L1 L1_G1 G1_G2 G2_H2 H2_H1 H1_B1 B1_B2 B2_C2 C2_D2 D2_D3 D3_J3 J3_J2 J2_K2 K2_J4 J4_J3 J3_R3 R3_R4 R4_R1 R1_R2 R2_S2 S2_S1 S1_M1 M1_M4 M4_O2 O2_M2 M2_M3 M3_S3 S3_S4 S4_R4 R4_R1 R1_R4 R4_R3 R3_R2 R2_R3 R3_U3",FALSE,NA,NA,"U","S",NA,143,74,69,949.253521126761,992574,513057,2352661,1839604,NA,NA,NA,NA,NA,NA,NA,NA,NA,NA,NA,NA,NA,NA,1360087,230.75,12.5822295321616,NA,NA,NA
39,2018-08-16,"13:11:24",39,"2018-08-16","13:11:24",39,39,39,39,334,"MazeLearning-334-1",1,"ExploreProc",1,NA,NA,"B H Q T T U U R J D D E F F F E E E D D D C C C B B H H G G L L G G H H B B B H Q T T X X X X V V X X T T T U U U T T T X X V V X Z P P Z X X V V X X T U U R R S S M M M E E E E F F F F N N F F E E M M O M M E E F F F E","H3 Q3 T3 T2 U2 U1 R1 J1 D1 D2 E2 F2 F3 F4 E4 E3 E4 D4 D3 D4 C4 C3 C4 B4 B3 H3 H4 G4 G3 L2 L1 G1 G2 H2 H1 B1 B2 B3 H3 Q3 T3 T4 X4 X3 X2 X3 V2 V1 X1 X2 T2 T1 T2 U2 U1 U4 T4 T1 T4 X4 X3 V2 V1 X1 Z1 P2 P3 Z2 X2 X3 V2 V1 X1 X2 T2 U2 U1 R1 R2 S2 S1 M1 M4 M1 E1 E2 E3 E2 F2 F3 F4 F3 N3 N1 F1 F4 E4 E3 M3 M4 O2 M2 M1 E1 E2 F2 F3 F4 E4","B3_H3 H3_Q3 Q3_T3 T3_T2 T2_U2 U2_U1 U1_R1 R1_J1 J1_D1 D1_D2 D2_E2 E2_F2 F2_F3 F3_F4 F4_E4 E4_E3 E3_E4 E4_D4 D4_D3 D3_D4 D4_C4 C4_C3 C3_C4 C4_B4 B4_B3 B3_H3 H3_H4 H4_G4 G4_G3 G3_L2 L2_L1 L1_G1 G1_G2 G2_H2 H2_H1 H1_B1 B1_B2 B2_B3 B3_H3 H3_Q3 Q3_T3 T3_T4 T4_X4 X4_X3 X3_X2 X2_X3 X3_V2 V2_V1 V1_X1 X1_X2 X2_T2 T2_T1 T1_T2 T2_U2 U2_U1 U1_U4 U4_T4 T4_T1 T1_T4 T4_X4 X4_X3 X3_V2 V2_V1 V1_X1 X1_Z1 Z1_P2 P2_P3 P3_Z2 Z2_X2 X2_X3 X3_V2 V2_V1 V1_X1 X1_X2 X2_T2 T2_U2 U2_U1 U1_R1 R1_R2 R2_S2 S2_S1 S1_M1 M1_M4 M4_M1 M1_E1 E1_E2 E2_E3 E3_E2 E2_F2 F2_F3 F3_F4 F4_F3 F3_N3 N3_N1 N1_F1 F1_F4 F4_E4 E4_E3 E3_M3 M3_M4 M4_O2 O2_M2 M2_M1 M1_E1 E1_E2 E2_F2 F2_F3 F3_F4 F4_E4",FALSE,NA,NA,"E","W",NA,110,53,57,1508.36697247706,492830,13407,2250454,2237047,NA,NA,NA,NA,NA,NA,NA,NA,NA,NA,NA,NA,NA,NA,1757624,169,8,NA,NA,NA
40,2018-08-16,"13:11:24",40,"2018-08-16","13:11:24",40,40,40,40,334,"MazeLearning-334-1",2,"ExploreProc",110,NA,NA,"E D D J R U U T T T X X V V X Z P P Z X X X T T Q H H G G A A G G H H B B C D D D C C I C C C C B B H H G G L L G G H H B B C D E E M M O M M E E D D J J K J J R U U W U T T Q Q Q Q Q Q Q H H H Q Q R R R Q Q H H G G A A","D4 D3 J3 R3 U3 U4 T4 T1 T4 X4 X3 V2 V1 X1 Z1 P2 P3 Z2 X2 X3 X2 T2 T1 Q1 H1 H4 G4 G1 A4 A3 G3 G2 H2 H1 B1 B2 C2 D2 D3 D4 C4 C3 I2 C1 C2 C3 C4 B4 B3 H3 H4 G4 G3 L2 L1 G1 G2 H2 H1 B1 B2 C2 D2 E2 E3 M3 M4 O2 M2 M1 E1 E4 D4 D3 J3 J2 K2 J4 J3 R3 U3 U2 W4 U4 T4 T1 Q1 Q2 Q3 Q2 Q1 Q2 Q1 H1 H4 H3 Q3 Q2 R2 R3 R4 Q4 Q1 H1 H4 G4 G1 A4 A3","E4_D4 D4_D3 D3_J3 J3_R3 R3_U3 U3_U4 U4_T4 T4_T1 T1_T4 T4_X4 X4_X3 X3_V2 V2_V1 V1_X1 X1_Z1 Z1_P2 P2_P3 P3_Z2 Z2_X2 X2_X3 X3_X2 X2_T2 T2_T1 T1_Q1 Q1_H1 H1_H4 H4_G4 G4_G1 G1_A4 A4_A3 A3_G3 G3_G2 G2_H2 H2_H1 H1_B1 B1_B2 B2_C2 C2_D2 D2_D3 D3_D4 D4_C4 C4_C3 C3_I2 I2_C1 C1_C2 C2_C3 C3_C4 C4_B4 B4_B3 B3_H3 H3_H4 H4_G4 G4_G3 G3_L2 L2_L1 L1_G1 G1_G2 G2_H2 H2_H1 H1_B1 B1_B2 B2_C2 C2_D2 D2_E2 E2_E3 E3_M3 M3_M4 M4_O2 O2_M2 M2_M1 M1_E1 E1_E4 E4_D4 D4_D3 D3_J3 J3_J2 J2_K2 K2_J4 J4_J3 J3_R3 R3_U3 U3_U2 U2_W4 W4_U4 U4_T4 T4_T1 T1_Q1 Q1_Q2 Q2_Q3 Q3_Q2 Q2_Q1 Q1_Q2 Q2_Q1 Q1_H1 H1_H4 H4_H3 H3_Q3 Q3_Q2 Q2_R2 R2_R3 R3_R4 R4_Q4 Q4_Q1 Q1_H1 H1_H4 H4_G4 G4_G1 G1_A4 A4_A3",FALSE,NA,NA,"A","S",NA,110,56,54,1814.59633027523,1046305,566602,2250454,1683852,NA,NA,NA,NA,NA,NA,NA,NA,NA,NA,NA,NA,NA,NA,1204149,185.5,11,NA,NA,NA
41,2018-08-16,"10:08:38",41,"2018-08-16","10:08:38",41,41,41,41,335,"MazeLearning-335-1",1,"ExploreProc",1,NA,NA,"E D D J J J R R R R R U U W U T T T X X X Z P P Z X T T Q Q Q H H G G A A G G H H B B B B C C I C C D D J J K J J D D C C I C C B B H H G G L L G A A G G H H H H B B C D E E M M O M M S S R R R R R Q Q T T T T X X X Z P P Z X X V Y Y V X X T T T U W","D4 D3 J3 J2 J3 R3 R4 R3 R2 R3 U3 U2 W4 U4 T4 T1 T4 X4 X3 X4 Z1 P2 P3 Z2 X2 T2 T1 Q1 Q2 Q1 H1 H4 G4 G1 A4 A3 G3 G2 H2 H1 B1 B2 B3 B2 C2 C3 I2 C1 C2 D2 D3 J3 J2 K2 J4 J1 D1 D4 C4 C3 I2 C1 C4 B4 B3 H3 H4 G4 G3 L2 L1 G1 A4 A3 G3 G2 H2 H3 H4 H1 B1 B2 C2 D2 E2 E3 M3 M4 O2 M2 M3 S3 S4 R4 R3 R4 R1 R4 Q4 Q3 T3 T2 T1 T4 X4 X3 X4 Z1 P2 P3 Z2 X2 X3 V2 Y3 Y4 V1 X1 X2 T2 T1 T2 U2 W4","E4_D4 D4_D3 D3_J3 J3_J2 J2_J3 J3_R3 R3_R4 R4_R3 R3_R2 R2_R3 R3_U3 U3_U2 U2_W4 W4_U4 U4_T4 T4_T1 T1_T4 T4_X4 X4_X3 X3_X4 X4_Z1 Z1_P2 P2_P3 P3_Z2 Z2_X2 X2_T2 T2_T1 T1_Q1 Q1_Q2 Q2_Q1 Q1_H1 H1_H4 H4_G4 G4_G1 G1_A4 A4_A3 A3_G3 G3_G2 G2_H2 H2_H1 H1_B1 B1_B2 B2_B3 B3_B2 B2_C2 C2_C3 C3_I2 I2_C1 C1_C2 C2_D2 D2_D3 D3_J3 J3_J2 J2_K2 K2_J4 J4_J1 J1_D1 D1_D4 D4_C4 C4_C3 C3_I2 I2_C1 C1_C4 C4_B4 B4_B3 B3_H3 H3_H4 H4_G4 G4_G3 G3_L2 L2_L1 L1_G1 G1_A4 A4_A3 A3_G3 G3_G2 G2_H2 H2_H3 H3_H4 H4_H1 H1_B1 B1_B2 B2_C2 C2_D2 D2_E2 E2_E3 E3_M3 M3_M4 M4_O2 O2_M2 M2_M3 M3_S3 S3_S4 S4_R4 R4_R3 R3_R4 R4_R1 R1_R4 R4_Q4 Q4_Q3 Q3_T3 T3_T2 T2_T1 T1_T4 T4_X4 X4_X3 X3_X4 X4_Z1 Z1_P2 P2_P3 P3_Z2 Z2_X2 X2_X3 X3_V2 V2_Y3 Y2_Y4 Y4_V1 V1_X1 X1_X2 X2_T2 T2_T1 T1_T2 T2_U2 U2_W4",FALSE,NA,NA,"W","W",NA,125,62,63,1002.73387096774,514491,33320,NA,NA,NA,NA,NA,NA,NA,NA,NA,NA,NA,NA,NA,NA,NA,NA,NA,184.25,13.8946932315903,NA,NA,NA
42,2018-08-16,"10:08:38",42,"2018-08-16","10:08:38",42,42,42,42,335,"MazeLearning-335-1",2,"ExploreProc",125,NA,NA,"W U U U U U W U U R R S S M M O M M E E D D J J K J J J J R R R R Q Q H H G G A A G G H H B B C D D J R U U W U U R R S S M M O M M E E F F N N F F E E M S S R R R S S M M O M M E E D D D D J J K J J D D E E M","U4 U1 U4 U1 U2 W4 U4 U1 R1 R2 S2 S1 M1 M4 O2 M2 M1 E1 E4 D4 D3 J3 J2 K2 J4 J1 J2 J3 R3 R2 R3 R4 Q4 Q1 H1 H4 G4 G1 A4 A3 G3 G2 H2 H1 B1 B2 C2 D2 D3 J3 R3 U3 U2 W4 U4 U1 R1 R2 S2 S1 M1 M4 O2 M2 M1 E1 E2 F2 F3 N3 N1 F1 F4 E4 E3 M3 S3 S4 R4 R3 R2 S2 S1 M1 M4 O2 M2 M1 E1 E4 D4 D3 D4 D3 J3 J2 K2 J4 J1 D1 D2 E2 E3 M3","W4_U4 U4_U1 U1_U4 U4_U1 U1_U2 U2_W4 W4_U4 U4_U1 U1_R1 R1_R2 R2_S2 S2_S1 S1_M1 M1_M4 M4_O2 O2_M2 M2_M1 M1_E1 E1_E4 E4_D4 D4_D3 D3_J3 J3_J2 J2_K2 K2_J4 J4_J1 J1_J2 J2_J3 J3_R3 R3_R2 R2_R3 R3_R4 R4_Q4 Q4_Q1 Q1_H1 H1_H4 H4_G4 G4_G1 G1_A4 A4_A3 A3_G3 G3_G2 G2_H2 H2_H1 H1_B1 B1_B2 B2_C2 C2_D2 D2_D3 D3_J3 J3_R3 R3_U3 U3_U2 U2_W4 W4_U4 U4_U1 U1_R1 R1_R2 R2_S2 S2_S1 S1_M1 M1_M4 M4_O2 O2_M2 M2_M1 M1_E1 E1_E2 E2_F2 F2_F3 F3_N3 N3_N1 N1_F1 F1_F4 F4_E4 E4_E3 E3_M3 M3_S3 S3_S4 S4_R4 R4_R3 R3_R2 R2_S2 S2_S1 S1_M1 M1_M4 M4_O2 O2_M2 M2_M1 M1_E1 E1_E4 E4_D4 D4_D3 D3_D4 D4_D3 D3_J3 J3_J2 J2_K2 K2_J4 J4_J1 J1_D1 D1_D2 D2_E2 E2_E3 E3_M3",FALSE,NA,NA,"M","S",NA,105,53,52,1320.53846153846,1019862,540625,NA,NA,NA,NA,NA,NA,NA,NA,NA,NA,NA,NA,NA,NA,NA,NA,NA,191,9.21954445729289,NA,NA,NA
43,2018-08-17,"12:35:15",43,"2018-08-17","12:35:15",43,43,43,43,336,"MazeLearning-336-1",1,"ExploreProc",1,NA,NA,"B B C D E F F N N F F F F E E M M M S S R Q Q Q R S S M M M E E D C C I C C D D J R U U W U T X X V Y Y V X Z Z X T U W U T X X V V X X T T Q Q Q T T X Z P P Z Z Z X X V V X X T U U R J D D E F F F E E M M O M M E E D","B2 C2 D2 E2 F2 F3 N3 N1 F1 F4 F3 F4 E4 E3 M3 M4 M3 S3 S4 R4 Q4 Q1 Q2 R2 S2 S1 M1 M4 M1 E1 E4 D4 C4 C3 I2 C1 C2 D2 D3 J3 R3 U3 U2 W4 U4 T4 X4 X3 V2 Y3 Y4 V1 X1 Z1 Z2 X2 T2 U2 W4 U4 T4 X4 X3 V2 V1 X1 X2 T2 T1 Q1 Q2 Q3 T3 T4 X4 Z1 P2 P3 Z2 Z1 Z2 X2 X3 V2 V1 X1 X2 T2 U2 U1 R1 J1 D1 D2 E2 F2 F3 F4 E4 E3 M3 M4 O2 M2 M1 E1 E4 D4","B3_B2 B2_C2 C2_D2 D2_E2 E2_F2 F2_F3 F3_N3 N3_N1 N1_F1 F1_F4 F4_F3 F3_F4 F4_E4 E4_E3 E3_M3 M3_M4 M4_M3 M3_S3 S3_S4 S4_R4 R4_Q4 Q4_Q1 Q1_Q2 Q2_R2 R2_S2 S2_S1 S1_M1 M1_M4 M4_M1 M1_E1 E1_E4 E4_D4 D4_C4 C4_C3 C3_I2 I2_C1 C1_C2 C2_D2 D2_D3 D3_J3 J3_R3 R3_U3 U3_U2 U2_W4 W4_U4 U4_T4 T4_X4 X4_X3 X3_V2 V2_Y3 Y2_Y4 Y4_V1 V1_X1 X1_Z1 Z1_Z2 Z2_X2 X2_T2 T2_U2 U2_W4 W4_U4 U4_T4 T4_X4 X4_X3 X3_V2 V2_V1 V1_X1 X1_X2 X2_T2 T2_T1 T1_Q1 Q1_Q2 Q2_Q3 Q3_T3 T3_T4 T4_X4 X4_Z1 Z1_P2 P2_P3 P3_Z2 Z2_Z1 Z1_Z2 Z2_X2 X2_X3 X3_V2 V2_V1 V1_X1 X1_X2 X2_T2 T2_U2 U2_U1 U1_R1 R1_J1 J1_D1 D1_D2 D2_E2 E2_F2 F2_F3 F3_F4 F4_E4 E4_E3 E3_M3 M3_M4 M4_O2 O2_M2 M2_M1 M1_E1 E1_E4 E4_D4",FALSE,NA,NA,"D","W",NA,109,64,45,1513.10185185185,494868,13934,2239565,2225631,NA,NA,NA,NA,NA,NA,NA,NA,NA,NA,NA,NA,NA,NA,1744697,202.5,4.5,NA,NA,NA
44,2018-08-17,"12:35:15",44,"2018-08-17","12:35:15",44,44,44,44,336,"MazeLearning-336-1",2,"ExploreProc",109,NA,NA,"D C C I C C C I C C D E E M M M S S R R R R R Q Q T T X X V V X X T T Q H H G G A A G G H H H H Q T T T Q H H G G A A G G H H Q Q R R J J K J J R R R U U T T T X X V V X Z P P Z Z P P Z Z P P Z X X X T U U R R Q Q T T X X V V X Z P P Z X X V V X Z P","C4 C3 I2 C1 C2 C3 I2 C1 C2 D2 E2 E3 M3 M4 M3 S3 S4 R4 R3 R4 R1 R4 Q4 Q3 T3 T4 X4 X3 V2 V1 X1 X2 T2 T1 Q1 H1 H4 G4 G1 A4 A3 G3 G2 H2 H3 H4 H3 Q3 T3 T2 T1 Q1 H1 H4 G4 G1 A4 A3 G3 G2 H2 H3 Q3 Q2 R2 R1 J1 J2 K2 J4 J3 R3 R2 R3 U3 U4 T4 T1 T4 X4 X3 V2 V1 X1 Z1 P2 P3 Z2 Z1 P2 P3 Z2 Z1 P2 P3 Z2 X2 X3 X2 T2 U2 U1 R1 R4 Q4 Q3 T3 T4 X4 X3 V2 V1 X1 Z1 P2 P3 Z2 X2 X3 V2 V1 X1 Z1 P2","D4_C4 C4_C3 C3_I2 I2_C1 C1_C2 C2_C3 C3_I2 I2_C1 C1_C2 C2_D2 D2_E2 E2_E3 E3_M3 M3_M4 M4_M3 M3_S3 S3_S4 S4_R4 R4_R3 R3_R4 R4_R1 R1_R4 R4_Q4 Q4_Q3 Q3_T3 T3_T4 T4_X4 X4_X3 X3_V2 V2_V1 V1_X1 X1_X2 X2_T2 T2_T1 T1_Q1 Q1_H1 H1_H4 H4_G4 G4_G1 G1_A4 A4_A3 A3_G3 G3_G2 G2_H2 H2_H3 H3_H4 H4_H3 H3_Q3 Q3_T3 T3_T2 T2_T1 T1_Q1 Q1_H1 H1_H4 H4_G4 G4_G1 G1_A4 A4_A3 A3_G3 G3_G2 G2_H2 H2_H3 H3_Q3 Q3_Q2 Q2_R2 R2_R1 R1_J1 J1_J2 J2_K2 K2_J4 J4_J3 J3_R3 R3_R2 R2_R3 R3_U3 U3_U4 U4_T4 T4_T1 T1_T4 T4_X4 X4_X3 X3_V2 V2_V1 V1_X1 X1_Z1 Z1_P2 P2_P3 P3_Z2 Z2_Z1 Z1_P2 P2_P3 P3_Z2 Z2_Z1 Z1_P2 P2_P3 P3_Z2 Z2_X2 X2_X3 X3_X2 X2_T2 T2_U2 U2_U1 U1_R1 R1_R4 R4_Q4 Q4_Q3 Q3_T3 T3_T4 T4_X4 X4_X3 X3_V2 V2_V1 V1_X1 X1_Z1 Z1_P2 P2_P3 P3_Z2 Z2_X2 X2_X3 X3_V2 V2_V1 V1_X1 X1_Z1 Z1_P2",FALSE,NA,NA,"P","E",NA,125,65,60,1119.62096774194,1003096,522669,2239565,1716896,NA,NA,NA,NA,NA,NA,NA,NA,NA,NA,NA,NA,NA,NA,1236469,204,10.9829413182444,NA,NA,NA
45,2018-09-26,"14:39:13",45,"2018-09-26","14:39:13",45,45,45,45,337,"MazeLearning-337-1",1,"ExploreProc",1,NA,NA,"U R J J K J J R R Q Q Q R R J D D C C C C I C C D E F F N N F F E E M M O M M S S R R U U W U T X X V Y Y V X X T T Q H B B B H H G G L L G G H H H G G L L G A A G G H H B B B H H G G A A G L L G G H H B B C C","R1 J1 J2 K2 J4 J3 R3 R4 Q4 Q3 Q2 R2 R1 J1 D1 D4 C4 C3 C2 C3 I2 C1 C2 D2 E2 F2 F3 N3 N1 F1 F4 E4 E3 M3 M4 O2 M2 M3 S3 S4 R4 R3 U3 U2 W4 U4 T4 X4 X3 V2 Y3 Y4 V1 X1 X2 T2 T1 Q1 H1 B1 B2 B3 H3 H4 G4 G3 L2 L1 G1 G2 H2 H3 H4 G4 G3 L2 L1 G1 A4 A3 G3 G2 H2 H1 B1 B2 B3 H3 H4 G4 G1 A4 A3 G3 L2 L1 G1 G2 H2 H1 B1 B2 C2 C3","U1_R1 R1_J1 J1_J2 J2_K2 K2_J4 J4_J3 J3_R3 R3_R4 R4_Q4 Q4_Q3 Q3_Q2 Q2_R2 R2_R1 R1_J1 J1_D1 D1_D4 D4_C4 C4_C3 C3_C2 C2_C3 C3_I2 I2_C1 C1_C2 C2_D2 D2_E2 E2_F2 F2_F3 F3_N3 N3_N1 N1_F1 F1_F4 F4_E4 E4_E3 E3_M3 M3_M4 M4_O2 O2_M2 M2_M3 M3_S3 S3_S4 S4_R4 R4_R3 R3_U3 U3_U2 U2_W4 W4_U4 U4_T4 T4_X4 X4_X3 X3_V2 V2_Y3 Y2_Y4 Y4_V1 V1_X1 X1_X2 X2_T2 T2_T1 T1_Q1 Q1_H1 H1_B1 B1_B2 B2_B3 B3_H3 H3_H4 H4_G4 G4_G3 G3_L2 L2_L1 L1_G1 G1_G2 G2_H2 H2_H3 H3_H4 H4_G4 G4_G3 G3_L2 L2_L1 L1_G1 G1_A4 A4_A3 A3_G3 G3_G2 G2_H2 H2_H1 H1_B1 B1_B2 B2_B3 B3_H3 H3_H4 H4_G4 G4_G1 G1_A4 A4_A3 A3_G3 G3_L2 L2_L1 L1_G1 G1_G2 G2_H2 H2_H1 H1_B1 B1_B2 B2_C2 C2_C3",FALSE,NA,NA,"C","S",NA,105,57,48,1320.75961538462,606271,124550,2365461,2240911,NA,NA,NA,NA,NA,NA,NA,NA,NA,NA,NA,NA,NA,NA,1759190,187.25,12.1269328356349,NA,NA,NA
46,2018-09-26,"14:39:13",46,"2018-09-26","14:39:13",46,46,46,46,337,"MazeLearning-337-1",2,"ExploreProc",105,NA,NA,"C C D D J R R S S S R R U U T T T X X V Y Y V V V V Y Y V X X T T Q Q Q H H G G A A G G H H Q T T X X V V X Z P P Z X T U W U T X X V V X Z Z X T T Q Q R R U U T T T X X V V X Z Z X T U U R J D D E","C2 D2 D3 J3 R3 R2 S2 S1 S4 R4 R3 U3 U4 T4 T1 T4 X4 X3 V2 Y3 Y4 V1 V2 V1 V2 Y3 Y4 V1 X1 X2 T2 T1 Q1 Q2 Q1 H1 H4 G4 G1 A4 A3 G3 G2 H2 H3 Q3 T3 T4 X4 X3 V2 V1 X1 Z1 P2 P3 Z2 X2 T2 U2 W4 U4 T4 X4 X3 V2 V1 X1 Z1 Z2 X2 T2 T1 Q1 Q2 R2 R3 U3 U4 T4 T1 T4 X4 X3 V2 V1 X1 Z1 Z2 X2 T2 U2 U1 R1 J1 D1 D2 E2","C3_C2 C2_D2 D2_D3 D3_J3 J3_R3 R3_R2 R2_S2 S2_S1 S1_S4 S4_R4 R4_R3 R3_U3 U3_U4 U4_T4 T4_T1 T1_T4 T4_X4 X4_X3 X3_V2 V2_Y3 Y2_Y4 Y4_V1 V1_V2 V2_V1 V1_V2 V2_Y3 Y2_Y4 Y4_V1 V1_X1 X1_X2 X2_T2 T2_T1 T1_Q1 Q1_Q2 Q2_Q1 Q1_H1 H1_H4 H4_G4 G4_G1 G1_A4 A4_A3 A3_G3 G3_G2 G2_H2 H2_H3 H3_Q3 Q3_T3 T3_T4 T4_X4 X4_X3 X3_V2 V2_V1 V1_X1 X1_Z1 Z1_P2 P2_P3 P3_Z2 Z2_X2 X2_T2 T2_U2 U2_W4 W4_U4 U4_T4 T4_X4 X4_X3 X3_V2 V2_V1 V1_X1 X1_Z1 Z1_Z2 Z2_X2 X2_T2 T2_T1 T1_Q1 Q1_Q2 Q2_R2 R2_R3 R3_U3 U3_U4 U4_T4 T4_T1 T1_T4 T4_X4 X4_X3 X3_V2 V2_V1 V1_X1 X1_Z1 Z1_Z2 Z2_X2 X2_T2 T2_U2 U2_U1 U1_R1 R1_J1 J1_D1 D1_D2 D2_E2",FALSE,NA,NA,"E","E",NA,99,56,43,1921.19387755102,1106139,625978,2365461,1739483,NA,NA,NA,NA,NA,NA,NA,NA,NA,NA,NA,NA,NA,NA,1259322,163,6.5,NA,NA,NA
47,2018-09-20,"13:46:10",47,"2018-09-20","13:46:10",47,47,47,47,338,"MazeLearning-338-1",1,"ExploreProc",1,NA,NA,"E D D J R U U U U T T Q Q R S S S S M M M E E E E F F N N F F E E M M O M M E E F F F E D C C I C C C C B B H H G G L L G G H H B B C C C D D J J K J J R R R R Q Q H H G G A A G L L G G H H B B C D D J R R R R S S M E E E","D4 D3 J3 R3 U3 U2 U1 U4 T4 T1 Q1 Q2 R2 S2 S1 S4 S1 M1 M4 M1 E1 E4 E3 E2 F2 F3 N3 N1 F1 F4 E4 E3 M3 M4 O2 M2 M1 E1 E2 F2 F3 F4 E4 D4 C4 C3 I2 C1 C4 C3 C4 B4 B3 H3 H4 G4 G3 L2 L1 G1 G2 H2 H1 B1 B2 C2 C3 C2 D2 D3 J3 J2 K2 J4 J3 R3 R2 R3 R4 Q4 Q1 H1 H4 G4 G1 A4 A3 G3 L2 L1 G1 G2 H2 H1 B1 B2 C2 D2 D3 J3 R3 R2 R1 R2 S2 S1 M1 E1 E4 E3","E4_D4 D4_D3 D3_J3 J3_R3 R3_U3 U3_U2 U2_U1 U1_U4 U4_T4 T4_T1 T1_Q1 Q1_Q2 Q2_R2 R2_S2 S2_S1 S1_S4 S4_S1 S1_M1 M1_M4 M4_M1 M1_E1 E1_E4 E4_E3 E3_E2 E2_F2 F2_F3 F3_N3 N3_N1 N1_F1 F1_F4 F4_E4 E4_E3 E3_M3 M3_M4 M4_O2 O2_M2 M2_M1 M1_E1 E1_E2 E2_F2 F2_F3 F3_F4 F4_E4 E4_D4 D4_C4 C4_C3 C3_I2 I2_C1 C1_C4 C4_C3 C3_C4 C4_B4 B4_B3 B3_H3 H3_H4 H4_G4 G4_G3 G3_L2 L2_L1 L1_G1 G1_G2 G2_H2 H2_H1 H1_B1 B1_B2 B2_C2 C2_C3 C3_C2 C2_D2 D2_D3 D3_J3 J3_J2 J2_K2 K2_J4 J4_J3 J3_R3 R3_R2 R2_R3 R3_R4 R4_Q4 Q4_Q1 Q1_H1 H1_H4 H4_G4 G4_G1 G1_A4 A4_A3 A3_G3 G3_L2 L2_L1 L1_G1 G1_G2 G2_H2 H2_H1 H1_B1 B1_B2 B2_C2 C2_D2 D2_D3 D3_J3 J3_R3 R3_R2 R2_R1 R1_R2 R2_S2 S2_S1 S1_M1 M1_E1 E1_E4 E4_E3",FALSE,NA,NA,"E","S",NA,111,53,58,1368.05454545455,516780,36503,2200345,2163842,NA,NA,NA,NA,NA,NA,NA,NA,NA,NA,NA,NA,NA,NA,1683565,183.5,0,NA,NA,NA
48,2018-09-20,"13:46:10",48,"2018-09-20","13:46:10",48,48,48,48,338,"MazeLearning-338-1",2,"ExploreProc",111,NA,NA,"E M M O M M S S R Q Q T T X X V V X X T T Q Q R R U U T X X V V X Z P P Z X X X Z P P Z X T U W U T X X V V X Z P P Z Z P P Z X T U U R J J K J J J J J K J J D D C B B H H G G A A G L L G A A G L L G G H H","M3 M4 O2 M2 M3 S3 S4 R4 Q4 Q3 T3 T4 X4 X3 V2 V1 X1 X2 T2 T1 Q1 Q2 R2 R3 U3 U4 T4 X4 X3 V2 V1 X1 Z1 P2 P3 Z2 X2 X3 X4 Z1 P2 P3 Z2 X2 T2 U2 W4 U4 T4 X4 X3 V2 V1 X1 Z1 P2 P3 Z2 Z1 P2 P3 Z2 X2 T2 U2 U1 R1 J1 J2 K2 J4 J3 J2 J1 J2 K2 J4 J1 D1 D4 C4 B4 B3 H3 H4 G4 G1 A4 A3 G3 L2 L1 G1 A4 A3 G3 L2 L1 G1 G2 H2 H1","E3_M3 M3_M4 M4_O2 O2_M2 M2_M3 M3_S3 S3_S4 S4_R4 R4_Q4 Q4_Q3 Q3_T3 T3_T4 T4_X4 X4_X3 X3_V2 V2_V1 V1_X1 X1_X2 X2_T2 T2_T1 T1_Q1 Q1_Q2 Q2_R2 R2_R3 R3_U3 U3_U4 U4_T4 T4_X4 X4_X3 X3_V2 V2_V1 V1_X1 X1_Z1 Z1_P2 P2_P3 P3_Z2 Z2_X2 X2_X3 X3_X4 X4_Z1 Z1_P2 P2_P3 P3_Z2 Z2_X2 X2_T2 T2_U2 U2_W4 W4_U4 U4_T4 T4_X4 X4_X3 X3_V2 V2_V1 V1_X1 X1_Z1 Z1_P2 P2_P3 P3_Z2 Z2_Z1 Z1_P2 P2_P3 P3_Z2 Z2_X2 X2_T2 T2_U2 U2_U1 U1_R1 R1_J1 J1_J2 J2_K2 K2_J4 J4_J3 J3_J2 J2_J1 J1_J2 J2_K2 K2_J4 J4_J1 J1_D1 D1_D4 D4_C4 C4_B4 B4_B3 B3_H3 H3_H4 H4_G4 G4_G1 G1_A4 A4_A3 A3_G3 G3_L2 L2_L1 L1_G1 G1_A4 A4_A3 A3_G3 G3_L2 L2_L1 L1_G1 G1_G2 G2_H2 H2_H1",FALSE,NA,NA,"H","N",NA,103,62,41,1595.04901960784,1020244,538687,2200345,1661658,NA,NA,NA,NA,NA,NA,NA,NA,NA,NA,NA,NA,NA,NA,1180101,183.25,8.31038506929733,NA,NA,NA
49,2018-11-16,"12:07:28",49,"2018-11-16","12:07:28",49,49,49,49,339,"MazeLearning-339-1",1,"ExploreProc",1,NA,NA,"B H Q Q R R U U W U U R R Q Q H H G G A A G L L G G H H Q T T X X V Y Y V X Z P P Z X X V V X X T U U R R S S M M M M O M M M M E E F F N N F F E D C C I C C C C D D J J K J J R U U T T Q H H G G L L G G H H B B C D D J J J D D E F F F E","H3 Q3 Q2 R2 R3 U3 U2 W4 U4 U1 R1 R4 Q4 Q1 H1 H4 G4 G1 A4 A3 G3 L2 L1 G1 G2 H2 H3 Q3 T3 T4 X4 X3 V2 Y3 Y4 V1 X1 Z1 P2 P3 Z2 X2 X3 V2 V1 X1 X2 T2 U2 U1 R1 R2 S2 S1 M1 M4 M3 M4 O2 M2 M3 M4 M1 E1 E2 F2 F3 N3 N1 F1 F4 E4 D4 C4 C3 I2 C1 C2 C3 C2 D2 D3 J3 J2 K2 J4 J3 R3 U3 U4 T4 T1 Q1 H1 H4 G4 G3 L2 L1 G1 G2 H2 H1 B1 B2 C2 D2 D3 J3 J2 J1 D1 D2 E2 F2 F3 F4 E4","B3_H3 H3_Q3 Q3_Q2 Q2_R2 R2_R3 R3_U3 U3_U2 U2_W4 W4_U4 U4_U1 U1_R1 R1_R4 R4_Q4 Q4_Q1 Q1_H1 H1_H4 H4_G4 G4_G1 G1_A4 A4_A3 A3_G3 G3_L2 L2_L1 L1_G1 G1_G2 G2_H2 H2_H3 H3_Q3 Q3_T3 T3_T4 T4_X4 X4_X3 X3_V2 V2_Y3 Y2_Y4 Y4_V1 V1_X1 X1_Z1 Z1_P2 P2_P3 P3_Z2 Z2_X2 X2_X3 X3_V2 V2_V1 V1_X1 X1_X2 X2_T2 T2_U2 U2_U1 U1_R1 R1_R2 R2_S2 S2_S1 S1_M1 M1_M4 M4_M3 M3_M4 M4_O2 O2_M2 M2_M3 M3_M4 M4_M1 M1_E1 E1_E2 E2_F2 F2_F3 F3_N3 N3_N1 N1_F1 F1_F4 F4_E4 E4_D4 D4_C4 C4_C3 C3_I2 I2_C1 C1_C2 C2_C3 C3_C2 C2_D2 D2_D3 D3_J3 J3_J2 J2_K2 K2_J4 J4_J3 J3_R3 R3_U3 U3_U4 U4_T4 T4_T1 T1_Q1 Q1_H1 H1_H4 H4_G4 G4_G3 G3_L2 L2_L1 L1_G1 G1_G2 G2_H2 H2_H1 H1_B1 B1_B2 B2_C2 C2_D2 D2_D3 D3_J3 J3_J2 J2_J1 J1_D1 D1_D2 D2_E2 E2_F2 F2_F3 F3_F4 F4_E4",FALSE,NA,NA,"E","W",NA,119,65,54,894.567796610169,530026,46775,2191084,2144309,NA,NA,NA,NA,NA,NA,NA,NA,NA,NA,NA,NA,NA,NA,1661058,218,8,NA,NA,NA
50,2018-11-16,"12:07:28",50,"2018-11-16","12:07:28",50,50,50,50,339,"MazeLearning-339-1",2,"ExploreProc",119,NA,NA,"E D C C I C C C C D D J R U U W U U U U R R S S M M M M O M M E E F F F E E M S S R Q Q T T X X V Y Y V X X T T Q Q Q H H G G A A G L L G G H H B B C D E F F F E D D J R U U T X X V V X X T T Q Q R R U U T T T X X V V X X T T Q Q Q H H G G L L G G H H B B C D D J R R Q Q H H G G A A G G H","D4 C4 C3 I2 C1 C2 C3 C2 D2 D3 J3 R3 U3 U2 W4 U4 U1 U2 U1 R1 R2 S2 S1 M1 M4 M3 M4 O2 M2 M1 E1 E2 F2 F3 F4 E4 E3 M3 S3 S4 R4 Q4 Q3 T3 T4 X4 X3 V2 Y3 Y4 V1 X1 X2 T2 T1 Q1 Q2 Q1 H1 H4 G4 G1 A4 A3 G3 L2 L1 G1 G2 H2 H1 B1 B2 C2 D2 E2 F2 F3 F4 E4 D4 D3 J3 R3 U3 U4 T4 X4 X3 V2 V1 X1 X2 T2 T1 Q1 Q2 R2 R3 U3 U4 T4 T1 T4 X4 X3 V2 V1 X1 X2 T2 T1 Q1 Q2 Q1 H1 H4 G4 G3 L2 L1 G1 G2 H2 H1 B1 B2 C2 D2 D3 J3 R3 R4 Q4 Q1 H1 H4 G4 G1 A4 A3 G3 G2 H2","E4_D4 D4_C4 C4_C3 C3_I2 I2_C1 C1_C2 C2_C3 C3_C2 C2_D2 D2_D3 D3_J3 J3_R3 R3_U3 U3_U2 U2_W4 W4_U4 U4_U1 U1_U2 U2_U1 U1_R1 R1_R2 R2_S2 S2_S1 S1_M1 M1_M4 M4_M3 M3_M4 M4_O2 O2_M2 M2_M1 M1_E1 E1_E2 E2_F2 F2_F3 F3_F4 F4_E4 E4_E3 E3_M3 M3_S3 S3_S4 S4_R4 R4_Q4 Q4_Q3 Q3_T3 T3_T4 T4_X4 X4_X3 X3_V2 V2_Y3 Y2_Y4 Y4_V1 V1_X1 X1_X2 X2_T2 T2_T1 T1_Q1 Q1_Q2 Q2_Q1 Q1_H1 H1_H4 H4_G4 G4_G1 G1_A4 A4_A3 A3_G3 G3_L2 L2_L1 L1_G1 G1_G2 G2_H2 H2_H1 H1_B1 B1_B2 B2_C2 C2_D2 D2_E2 E2_F2 F2_F3 F3_F4 F4_E4 E4_D4 D4_D3 D3_J3 J3_R3 R3_U3 U3_U4 U4_T4 T4_X4 X4_X3 X3_V2 V2_V1 V1_X1 X1_X2 X2_T2 T2_T1 T1_Q1 Q1_Q2 Q2_R2 R2_R3 R3_U3 U3_U4 U4_T4 T4_T1 T1_T4 T4_X4 X4_X3 X3_V2 V2_V1 V1_X1 X1_X2 X2_T2 T2_T1 T1_Q1 Q1_Q2 Q2_Q1 Q1_H1 H1_H4 H4_G4 G4_G3 G3_L2 L2_L1 L1_G1 G1_G2 G2_H2 H2_H1 H1_B1 B1_B2 B2_C2 C2_D2 D2_D3 D3_J3 J3_R3 R3_R4 R4_Q4 Q4_Q1 Q1_H1 H1_H4 H4_G4 G4_G1 G1_A4 A4_A3 A3_G3 G3_G2 G2_H2",FALSE,NA,NA,"H","E",NA,145,77,68,638.9375,1033076,552439,2191084,1638645,NA,NA,NA,NA,NA,NA,NA,NA,NA,NA,NA,NA,NA,NA,1158008,247.25,8.31038506929733,NA,NA,NA
51,2018-10-01,"13:10:38",51,"2018-10-01","13:10:38",51,51,51,51,340,"MazeLearning-340-1",1,"ExploreProc",1,NA,NA,"E E M S S R R J J J J K J J R R S S M M M E E E M S S S M M O M M E E D C C C B B H Q Q Q T T U U U W U U R R R R Q Q T T X X V V X X X X Z P P Z Z Z Z P P Z X T T T U U R R Q Q H H G G G H H B B B H H","E3 M3 S3 S4 R4 R1 J1 J2 J1 J2 K2 J4 J3 R3 R2 S2 S1 M1 M4 M1 E1 E2 E3 M3 S3 S4 S1 M1 M4 O2 M2 M1 E1 E4 D4 C4 C3 C4 B4 B3 H3 Q3 Q2 Q3 T3 T2 U2 U1 U2 W4 U4 U1 R1 R2 R1 R4 Q4 Q3 T3 T4 X4 X3 V2 V1 X1 X2 X3 X4 Z1 P2 P3 Z2 Z1 Z2 Z1 P2 P3 Z2 X2 T2 T1 T2 U2 U1 R1 R4 Q4 Q1 H1 H4 G4 G1 G2 H2 H1 B1 B2 B3 H3 H4","E4_E3 E3_M3 M3_S3 S3_S4 S4_R4 R4_R1 R1_J1 J1_J2 J2_J1 J1_J2 J2_K2 K2_J4 J4_J3 J3_R3 R3_R2 R2_S2 S2_S1 S1_M1 M1_M4 M4_M1 M1_E1 E1_E2 E2_E3 E3_M3 M3_S3 S3_S4 S4_S1 S1_M1 M1_M4 M4_O2 O2_M2 M2_M1 M1_E1 E1_E4 E4_D4 D4_C4 C4_C3 C3_C4 C4_B4 B4_B3 B3_H3 H3_Q3 Q3_Q2 Q2_Q3 Q3_T3 T3_T2 T2_U2 U2_U1 U1_U2 U2_W4 W4_U4 U4_U1 U1_R1 R1_R2 R2_R1 R1_R4 R4_Q4 Q4_Q3 Q3_T3 T3_T4 T4_X4 X4_X3 X3_V2 V2_V1 V1_X1 X1_X2 X2_X3 X3_X4 X4_Z1 Z1_P2 P2_P3 P3_Z2 Z2_Z1 Z1_Z2 Z2_Z1 Z1_P2 P2_P3 P3_Z2 Z2_X2 X2_T2 T2_T1 T1_T2 T2_U2 U2_U1 U1_R1 R1_R4 R4_Q4 Q4_Q1 Q1_H1 H1_H4 H4_G4 G4_G1 G1_G2 G2_H2 H2_H1 H1_B1 B1_B2 B2_B3 B3_H3 H3_H4",FALSE,NA,NA,"H","W",NA,101,46,55,1656.66,510215,28006,2319653,2291647,NA,NA,NA,NA,NA,NA,NA,NA,NA,NA,NA,NA,NA,NA,1809438,159.25,8.31038506929733,NA,NA,NA
52,2018-10-01,"13:10:38",52,"2018-10-01","13:10:38",52,52,52,52,340,"MazeLearning-340-1",2,"ExploreProc",101,NA,NA,"H H B B B H H G G L L G G H H H H B B B H Q T T X X V Y Y V V V X X X X Z Z X T T Q H H G G G H H B B B H H G G G G A A G G H H H H B B B B B B C C I C C C I C C B B B C C I C C B B H H H B B B B C D D J J K J J J J D D E E M M O M M M M","H1 B1 B2 B3 H3 H4 G4 G3 L2 L1 G1 G2 H2 H3 H4 H1 B1 B2 B3 H3 Q3 T3 T4 X4 X3 V2 Y3 Y4 V1 V2 V1 X1 X2 X3 X4 Z1 Z2 X2 T2 T1 Q1 H1 H4 G4 G3 G2 H2 H1 B1 B2 B3 H3 H4 G4 G3 G2 G1 A4 A3 G3 G2 H2 H3 H4 H1 B1 B2 B3 B2 B3 B2 C2 C3 I2 C1 C4 C3 I2 C1 C4 B4 B3 B2 C2 C3 I2 C1 C4 B4 B3 H3 H4 H1 B1 B2 B3 B2 C2 D2 D3 J3 J2 K2 J4 J3 J2 J1 D1 D2 E2 E3 M3 M4 O2 M2 M1 M4 M3","H4_H1 H1_B1 B1_B2 B2_B3 B3_H3 H3_H4 H4_G4 G4_G3 G3_L2 L2_L1 L1_G1 G1_G2 G2_H2 H2_H3 H3_H4 H4_H1 H1_B1 B1_B2 B2_B3 B3_H3 H3_Q3 Q3_T3 T3_T4 T4_X4 X4_X3 X3_V2 V2_Y3 Y2_Y4 Y4_V1 V1_V2 V2_V1 V1_X1 X1_X2 X2_X3 X3_X4 X4_Z1 Z1_Z2 Z2_X2 X2_T2 T2_T1 T1_Q1 Q1_H1 H1_H4 H4_G4 G4_G3 G3_G2 G2_H2 H2_H1 H1_B1 B1_B2 B2_B3 B3_H3 H3_H4 H4_G4 G4_G3 G3_G2 G2_G1 G1_A4 A4_A3 A3_G3 G3_G2 G2_H2 H2_H3 H3_H4 H4_H1 H1_B1 B1_B2 B2_B3 B3_B2 B2_B3 B3_B2 B2_C2 C2_C3 C3_I2 I2_C1 C1_C4 C4_C3 C3_I2 I2_C1 C1_C4 C4_B4 B4_B3 B3_B2 B2_C2 C2_C3 C3_I2 I2_C1 C1_C4 C4_B4 B4_B3 B3_H3 H3_H4 H4_H1 H1_B1 B1_B2 B2_B3 B3_B2 B2_C2 C2_D2 D2_D3 D3_J3 J3_J2 J2_K2 K2_J4 J4_J3 J3_J2 J2_J1 J1_D1 D1_D2 D2_E2 E2_E3 E3_M3 M3_M4 M4_O2 O2_M2 M2_M1 M1_M4 M4_M3",FALSE,NA,NA,"M","S",NA,119,51,68,1237.76271186441,1019437,540215,2319653,1779438,NA,NA,NA,NA,NA,NA,NA,NA,NA,NA,NA,NA,NA,NA,1300216,142.5,8.38152730712011,NA,NA,NA
53,2018-10-09,"14:51:51",53,"2018-10-09","14:51:51",53,53,53,53,341,"MazeLearning-341-1",1,"ExploreProc",1,NA,NA,"B H Q Q R S S M E E D D J J K J J D D E E M M O M M S S S M M M S S R R J J K J J D D D J J J J K J J J K J J R R R U U T T Q Q R R J J J R R R U U W U T T T X X V Y Y V X X T U U U W U T","H3 Q3 Q2 R2 S2 S1 M1 E1 E4 D4 D3 J3 J2 K2 J4 J1 D1 D2 E2 E3 M3 M4 O2 M2 M3 S3 S4 S1 M1 M4 M3 S3 S4 R4 R1 J1 J2 K2 J4 J1 D1 D2 D3 J3 J2 J1 J2 K2 J4 J1 J2 K2 J4 J3 R3 R2 R3 U3 U4 T4 T1 Q1 Q2 R2 R1 J1 J2 J3 R3 R2 R3 U3 U2 W4 U4 T4 T1 T4 X4 X3 V2 Y3 Y4 V1 X1 X2 T2 U2 U1 U2 W4 U4 T4","B3_H3 H3_Q3 Q3_Q2 Q2_R2 R2_S2 S2_S1 S1_M1 M1_E1 E1_E4 E4_D4 D4_D3 D3_J3 J3_J2 J2_K2 K2_J4 J4_J1 J1_D1 D1_D2 D2_E2 E2_E3 E3_M3 M3_M4 M4_O2 O2_M2 M2_M3 M3_S3 S3_S4 S4_S1 S1_M1 M1_M4 M4_M3 M3_S3 S3_S4 S4_R4 R4_R1 R1_J1 J1_J2 J2_K2 K2_J4 J4_J1 J1_D1 D1_D2 D2_D3 D3_J3 J3_J2 J2_J1 J1_J2 J2_K2 K2_J4 J4_J1 J1_J2 J2_K2 K2_J4 J4_J3 J3_R3 R3_R2 R2_R3 R3_U3 U3_U4 U4_T4 T4_T1 T1_Q1 Q1_Q2 Q2_R2 R2_R1 R1_J1 J1_J2 J2_J3 J3_R3 R3_R2 R2_R3 R3_U3 U3_U2 U2_W4 W4_U4 U4_T4 T4_T1 T1_T4 T4_X4 X4_X3 X3_V2 V2_Y3 Y2_Y4 Y4_V1 V1_X1 X1_X2 X2_T2 T2_U2 U2_U1 U1_U2 U2_W4 W4_U4 U4_T4",FALSE,NA,NA,"T","W",NA,94,49,45,1476.8064516129,532537,51620,NA,NA,NA,NA,NA,NA,NA,NA,NA,NA,NA,NA,NA,NA,NA,NA,NA,177.25,11.75,NA,NA,NA
54,2018-10-09,"14:51:51",54,"2018-10-09","14:51:51",54,54,54,54,341,"MazeLearning-341-1",2,"ExploreProc",94,NA,NA,"T X X X T U U R R R J J K J J J J R U U U U W U T T Q H B B B H Q Q Q T T T Q H H G G A A G L L G G H H B B C C C D D J J K J J J J J K J J R R R R R R Q Q H H G G G H H H G G L L G G H H B B B H H G G A A G L L G G H H Q","X4 X3 X2 T2 U2 U1 R1 R2 R1 J1 J2 K2 J4 J1 J2 J3 R3 U3 U2 U1 U2 W4 U4 T4 T1 Q1 H1 B1 B2 B3 H3 Q3 Q2 Q3 T3 T4 T1 Q1 H1 H4 G4 G1 A4 A3 G3 L2 L1 G1 G2 H2 H1 B1 B2 C2 C3 C2 D2 D3 J3 J2 K2 J4 J3 J2 J1 J2 K2 J4 J3 R3 R4 R3 R2 R1 R4 Q4 Q1 H1 H4 G4 G3 G2 H2 H3 H4 G4 G3 L2 L1 G1 G2 H2 H1 B1 B2 B3 H3 H4 G4 G1 A4 A3 G3 L2 L1 G1 G2 H2 H3 Q3","T4_X4 X4_X3 X3_X2 X2_T2 T2_U2 U2_U1 U1_R1 R1_R2 R2_R1 R1_J1 J1_J2 J2_K2 K2_J4 J4_J1 J1_J2 J2_J3 J3_R3 R3_U3 U3_U2 U2_U1 U1_U2 U2_W4 W4_U4 U4_T4 T4_T1 T1_Q1 Q1_H1 H1_B1 B1_B2 B2_B3 B3_H3 H3_Q3 Q3_Q2 Q2_Q3 Q3_T3 T3_T4 T4_T1 T1_Q1 Q1_H1 H1_H4 H4_G4 G4_G1 G1_A4 A4_A3 A3_G3 G3_L2 L2_L1 L1_G1 G1_G2 G2_H2 H2_H1 H1_B1 B1_B2 B2_C2 C2_C3 C3_C2 C2_D2 D2_D3 D3_J3 J3_J2 J2_K2 K2_J4 J4_J3 J3_J2 J2_J1 J1_J2 J2_K2 K2_J4 J4_J3 J3_R3 R3_R4 R4_R3 R3_R2 R2_R1 R1_R4 R4_Q4 Q4_Q1 Q1_H1 H1_H4 H4_G4 G4_G3 G3_G2 G2_H2 H2_H3 H3_H4 H4_G4 G4_G3 G3_L2 L2_L1 L1_G1 G1_G2 G2_H2 H2_H1 H1_B1 B1_B2 B2_B3 B3_H3 H3_H4 H4_G4 G4_G1 G1_A4 A4_A3 A3_G3 G3_L2 L2_L1 L1_G1 G1_G2 G2_H2 H2_H3 H3_Q3",FALSE,NA,NA,"Q","S",NA,111,52,59,1227.80909090909,1015561,537670,NA,NA,NA,NA,NA,NA,NA,NA,NA,NA,NA,NA,NA,NA,NA,NA,NA,180.75,3.75,NA,NA,NA
55,2019-01-25,"15:31:45",55,"2019-01-25","15:31:45",55,55,55,55,342,"MazeLearning-342-1",1,"ExploreProc",1,NA,NA,"T U U R R Q Q H H H Q Q Q Q R R U U T T T X Z P P Z X T T Q Q R R J J K J J D D E F F N N F F F F E E M M O M M E E F F F E D C C C B B B C C I C C C C B B H H G G A A G G G L L G G H H Q T","U2 U1 R1 R4 Q4 Q1 H1 H4 H3 Q3 Q2 Q1 Q2 R2 R3 U3 U4 T4 T1 T4 X4 Z1 P2 P3 Z2 X2 T2 T1 Q1 Q2 R2 R1 J1 J2 K2 J4 J1 D1 D2 E2 F2 F3 N3 N1 F1 F4 F3 F4 E4 E3 M3 M4 O2 M2 M1 E1 E2 F2 F3 F4 E4 D4 C4 C3 C4 B4 B3 B2 C2 C3 I2 C1 C4 C3 C4 B4 B3 H3 H4 G4 G1 A4 A3 G3 G2 G3 L2 L1 G1 G2 H2 H3 Q3 T3","T2_U2 U2_U1 U1_R1 R1_R4 R4_Q4 Q4_Q1 Q1_H1 H1_H4 H4_H3 H3_Q3 Q3_Q2 Q2_Q1 Q1_Q2 Q2_R2 R2_R3 R3_U3 U3_U4 U4_T4 T4_T1 T1_T4 T4_X4 X4_Z1 Z1_P2 P2_P3 P3_Z2 Z2_X2 X2_T2 T2_T1 T1_Q1 Q1_Q2 Q2_R2 R2_R1 R1_J1 J1_J2 J2_K2 K2_J4 J4_J1 J1_D1 D1_D2 D2_E2 E2_F2 F2_F3 F3_N3 N3_N1 N1_F1 F1_F4 F4_F3 F3_F4 F4_E4 E4_E3 E3_M3 M3_M4 M4_O2 O2_M2 M2_M1 M1_E1 E1_E2 E2_F2 F2_F3 F3_F4 F4_E4 E4_D4 D4_C4 C4_C3 C3_C4 C4_B4 B4_B3 B3_B2 B2_C2 C2_C3 C3_I2 I2_C1 C1_C4 C4_C3 C3_C4 C4_B4 B4_B3 B3_H3 H3_H4 H4_G4 G4_G1 G1_A4 A4_A3 A3_G3 G3_G2 G2_G3 G3_L2 L2_L1 L1_G1 G1_G2 G2_H2 H2_H3 H3_Q3 Q3_T3",FALSE,NA,NA,"T","S",NA,95,47,48,1887.81914893617,541814,61387,2400445,2339058,NA,NA,NA,NA,NA,NA,NA,NA,NA,NA,NA,NA,NA,NA,1858631,161,0,NA,NA,NA
56,2019-01-25,"15:31:45",56,"2019-01-25","15:31:45",56,56,56,56,342,"MazeLearning-342-1",2,"ExploreProc",95,NA,NA,"T T T T X Z P P Z X T T T U U U W U U R R R R R R R J D D C C C C I C C B B H H G G G G L L G G H H Q Q R R R R R S S M M M M O M M M M S S S S R R R R R R U U W U T X X V Y Y V X X X X Z P P Z X X V V X X","T2 T1 T4 X4 Z1 P2 P3 Z2 X2 T2 T1 T2 U2 U1 U2 W4 U4 U1 R1 R4 R1 R2 R3 R4 R1 J1 D1 D4 C4 C3 C2 C3 I2 C1 C4 B4 B3 H3 H4 G4 G3 G2 G3 L2 L1 G1 G2 H2 H3 Q3 Q2 R2 R1 R2 R3 R2 S2 S1 M1 M4 M3 M4 O2 M2 M3 M4 M3 S3 S4 S1 S4 R4 R1 R4 R3 R2 R3 U3 U2 W4 U4 T4 X4 X3 V2 Y3 Y4 V1 X1 X2 X3 X4 Z1 P2 P3 Z2 X2 X3 V2 V1 X1 X2","T3_T2 T2_T1 T1_T4 T4_X4 X4_Z1 Z1_P2 P2_P3 P3_Z2 Z2_X2 X2_T2 T2_T1 T1_T2 T2_U2 U2_U1 U1_U2 U2_W4 W4_U4 U4_U1 U1_R1 R1_R4 R4_R1 R1_R2 R2_R3 R3_R4 R4_R1 R1_J1 J1_D1 D1_D4 D4_C4 C4_C3 C3_C2 C2_C3 C3_I2 I2_C1 C1_C4 C4_B4 B4_B3 B3_H3 H3_H4 H4_G4 G4_G3 G3_G2 G2_G3 G3_L2 L2_L1 L1_G1 G1_G2 G2_H2 H2_H3 H3_Q3 Q3_Q2 Q2_R2 R2_R1 R1_R2 R2_R3 R3_R2 R2_S2 S2_S1 S1_M1 M1_M4 M4_M3 M3_M4 M4_O2 O2_M2 M2_M3 M3_M4 M4_M3 M3_S3 S3_S4 S4_S1 S1_S4 S4_R4 R4_R1 R1_R4 R4_R3 R3_R2 R2_R3 R3_U3 U3_U2 U2_W4 W4_U4 U4_T4 T4_X4 X4_X3 X3_V2 V2_Y3 Y2_Y4 Y4_V1 V1_X1 X1_X2 X2_X3 X3_X4 X4_Z1 Z1_P2 P2_P3 P3_Z2 Z2_X2 X2_X3 X3_V2 V2_V1 V1_X1 X1_X2",FALSE,NA,NA,"X","E",NA,103,44,59,1664.60784313725,1051975,571107,2400445,1829338,NA,NA,NA,NA,NA,NA,NA,NA,NA,NA,NA,NA,NA,NA,1348470,134.25,1.25,NA,NA,NA
57,2019-02-12,"09:35:37",57,"2019-02-12","09:35:37",57,57,57,57,343,"MazeLearning-343-1",1,"ExploreProc",1,NA,NA,"U R J D D E E E F F N N F F E E E D D J J J R R R R R U U U U T T T X X V V X X T T Q Q R R U U W U T T T X X X X V Y Y V X X X V V X X T T Q H H G G G H H B B C D E F F F E E M S S S M M O M M E E F F F E D C C C","R1 J1 D1 D2 E2 E3 E2 F2 F3 N3 N1 F1 F4 E4 E3 E4 D4 D3 J3 J2 J3 R3 R2 R3 R4 R3 U3 U2 U1 U4 T4 T1 T4 X4 X3 V2 V1 X1 X2 T2 T1 Q1 Q2 R2 R3 U3 U2 W4 U4 T4 T1 T4 X4 X3 X2 X3 V2 Y3 Y4 V1 X1 X2 X3 V2 V1 X1 X2 T2 T1 Q1 H1 H4 G4 G1 G2 H2 H1 B1 B2 C2 D2 E2 F2 F3 F4 E4 E3 M3 S3 S4 S1 M1 M4 O2 M2 M1 E1 E2 F2 F3 F4 E4 D4 C4 C3 C4","U1_R1 R1_J1 J1_D1 D1_D2 D2_E2 E2_E3 E3_E2 E2_F2 F2_F3 F3_N3 N3_N1 N1_F1 F1_F4 F4_E4 E4_E3 E3_E4 E4_D4 D4_D3 D3_J3 J3_J2 J2_J3 J3_R3 R3_R2 R2_R3 R3_R4 R4_R3 R3_U3 U3_U2 U2_U1 U1_U4 U4_T4 T4_T1 T1_T4 T4_X4 X4_X3 X3_V2 V2_V1 V1_X1 X1_X2 X2_T2 T2_T1 T1_Q1 Q1_Q2 Q2_R2 R2_R3 R3_U3 U3_U2 U2_W4 W4_U4 U4_T4 T4_T1 T1_T4 T4_X4 X4_X3 X3_X2 X2_X3 X3_V2 V2_Y3 Y2_Y4 Y4_V1 V1_X1 X1_X2 X2_X3 X3_V2 V2_V1 V1_X1 X1_X2 X2_T2 T2_T1 T1_Q1 Q1_H1 H1_H4 H4_G4 G4_G1 G1_G2 G2_H2 H2_H1 H1_B1 B1_B2 B2_C2 C2_D2 D2_E2 E2_F2 F2_F3 F3_F4 F4_E4 E4_E3 E3_M3 M3_S3 S3_S4 S4_S1 S1_M1 M1_M4 M4_O2 O2_M2 M2_M1 M1_E1 E1_E2 E2_F2 F2_F3 F3_F4 F4_E4 E4_D4 D4_C4 C4_C3 C3_C4",FALSE,NA,NA,"C","W",NA,107,51,56,1400.57547169811,546480,66080,2234137,2168057,NA,NA,NA,NA,NA,NA,NA,NA,NA,NA,NA,NA,NA,NA,1687657,164.75,12.1269328356349,NA,NA,NA
58,2019-02-12,"09:35:37",58,"2019-02-12","09:35:37",58,58,58,58,343,"MazeLearning-343-1",2,"ExploreProc",107,NA,NA,"C C I C C C I C C C C C C B B H H G G A A G L L G G H H H H B B B H Q Q R R U U W U T X X V V X X X V V X X T U U R R S S M E E E E F F N N F F F F E E M M O M M E E F F F E D D D C B B H H G G G H H H G G L L G G H H H G G L L G G H H B B C D","C3 I2 C1 C2 C3 I2 C1 C2 C3 C4 C3 C4 B4 B3 H3 H4 G4 G1 A4 A3 G3 L2 L1 G1 G2 H2 H3 H4 H1 B1 B2 B3 H3 Q3 Q2 R2 R3 U3 U2 W4 U4 T4 X4 X3 V2 V1 X1 X2 X3 V2 V1 X1 X2 T2 U2 U1 R1 R2 S2 S1 M1 E1 E4 E3 E2 F2 F3 N3 N1 F1 F4 F3 F4 E4 E3 M3 M4 O2 M2 M1 E1 E2 F2 F3 F4 E4 D4 D3 D4 C4 B4 B3 H3 H4 G4 G1 G2 H2 H3 H4 G4 G3 L2 L1 G1 G2 H2 H3 H4 G4 G3 L2 L1 G1 G2 H2 H1 B1 B2 C2 D2","C4_C3 C3_I2 I2_C1 C1_C2 C2_C3 C3_I2 I2_C1 C1_C2 C2_C3 C3_C4 C4_C3 C3_C4 C4_B4 B4_B3 B3_H3 H3_H4 H4_G4 G4_G1 G1_A4 A4_A3 A3_G3 G3_L2 L2_L1 L1_G1 G1_G2 G2_H2 H2_H3 H3_H4 H4_H1 H1_B1 B1_B2 B2_B3 B3_H3 H3_Q3 Q3_Q2 Q2_R2 R2_R3 R3_U3 U3_U2 U2_W4 W4_U4 U4_T4 T4_X4 X4_X3 X3_V2 V2_V1 V1_X1 X1_X2 X2_X3 X3_V2 V2_V1 V1_X1 X1_X2 X2_T2 T2_U2 U2_U1 U1_R1 R1_R2 R2_S2 S2_S1 S1_M1 M1_E1 E1_E4 E4_E3 E3_E2 E2_F2 F2_F3 F3_N3 N3_N1 N1_F1 F1_F4 F4_F3 F3_F4 F4_E4 E4_E3 E3_M3 M3_M4 M4_O2 O2_M2 M2_M1 M1_E1 E1_E2 E2_F2 F2_F3 F3_F4 F4_E4 E4_D4 D4_D3 D3_D4 D4_C4 C4_B4 B4_B3 B3_H3 H3_H4 H4_G4 G4_G1 G1_G2 G2_H2 H2_H3 H3_H4 H4_G4 G4_G3 G3_L2 L2_L1 L1_G1 G1_G2 G2_H2 H2_H3 H3_H4 H4_G4 G4_G3 G3_L2 L2_L1 L1_G1 G1_G2 G2_H2 H2_H1 H1_B1 B1_B2 B2_C2 C2_D2",FALSE,NA,NA,"D","E",NA,122,58,64,1133.3305785124,1059535,579094,2234137,1655043,NA,NA,NA,NA,NA,NA,NA,NA,NA,NA,NA,NA,NA,NA,1174602,182,3,NA,NA,NA
59,2019-02-07,"13:47:57",59,"2019-02-07","13:47:57",59,59,59,59,344,"MazeLearning-344-1",1,"ExploreProc",1,NA,NA,"B H Q T T U U R J D D E F F N N F F E D D D C C C B B H H H H G G L L G A A G G G L L G G H H B B C C C D D J J J R R R U U W U U R R Q Q H H G G A A G G H H B B C D D D E E M M O M M E E F F F E D D D C C I C C C C C C D D J J J R R","H3 Q3 T3 T2 U2 U1 R1 J1 D1 D2 E2 F2 F3 N3 N1 F1 F4 E4 D4 D3 D4 C4 C3 C4 B4 B3 H3 H4 H1 H4 G4 G3 L2 L1 G1 A4 A3 G3 G2 G3 L2 L1 G1 G2 H2 H1 B1 B2 C2 C3 C2 D2 D3 J3 J2 J3 R3 R2 R3 U3 U2 W4 U4 U1 R1 R4 Q4 Q1 H1 H4 G4 G1 A4 A3 G3 G2 H2 H1 B1 B2 C2 D2 D3 D2 E2 E3 M3 M4 O2 M2 M1 E1 E2 F2 F3 F4 E4 D4 D3 D4 C4 C3 I2 C1 C2 C3 C2 C3 C2 D2 D3 J3 J2 J3 R3 R2","B3_H3 H3_Q3 Q3_T3 T3_T2 T2_U2 U2_U1 U1_R1 R1_J1 J1_D1 D1_D2 D2_E2 E2_F2 F2_F3 F3_N3 N3_N1 N1_F1 F1_F4 F4_E4 E4_D4 D4_D3 D3_D4 D4_C4 C4_C3 C3_C4 C4_B4 B4_B3 B3_H3 H3_H4 H4_H1 H1_H4 H4_G4 G4_G3 G3_L2 L2_L1 L1_G1 G1_A4 A4_A3 A3_G3 G3_G2 G2_G3 G3_L2 L2_L1 L1_G1 G1_G2 G2_H2 H2_H1 H1_B1 B1_B2 B2_C2 C2_C3 C3_C2 C2_D2 D2_D3 D3_J3 J3_J2 J2_J3 J3_R3 R3_R2 R2_R3 R3_U3 U3_U2 U2_W4 W4_U4 U4_U1 U1_R1 R1_R4 R4_Q4 Q4_Q1 Q1_H1 H1_H4 H4_G4 G4_G1 G1_A4 A4_A3 A3_G3 G3_G2 G2_H2 H2_H1 H1_B1 B1_B2 B2_C2 C2_D2 D2_D3 D3_D2 D2_E2 E2_E3 E3_M3 M3_M4 M4_O2 O2_M2 M2_M1 M1_E1 E1_E2 E2_F2 F2_F3 F3_F4 F4_E4 E4_D4 D4_D3 D3_D4 D4_C4 C4_C3 C3_I2 I2_C1 C1_C2 C2_C3 C3_C2 C2_C3 C3_C2 C2_D2 D2_D3 D3_J3 J3_J2 J2_J3 J3_R3 R3_R2",FALSE,NA,NA,"R","E",NA,117,56,61,1332.87068965517,554426,76307,2312824,2236517,NA,NA,NA,NA,NA,NA,NA,NA,NA,NA,NA,NA,NA,NA,1758398,189,9.17877987534291,NA,NA,NA
